Time,accX1,accY1,accZ1,accX2,accY2,accZ2,wX1,wY1,wZ1,wX2,wY2,wZ2
0.0,-7.709329605102539,-1.237802267074585,4.910507678985596,-0.767578125,-0.36328125,-0.494384765625,-0.48815926909446716,1.5129739046096802,-0.23342111706733704,0.54931640625,-2.25830078125,-2.38037109375
0.010018999999999778,-8.01339340209961,-1.3335703611373901,4.754884719848633,-0.767578125,-0.36328125,-0.494384765625,-0.4761684536933899,1.4767351150512695,-0.23342111706733704,1.28173828125,-4.08935546875,-2.8076171875
0.020029000000000963,-8.62630844116211,-1.6376339197158813,4.422090530395508,-0.7520751953125,-0.363037109375,-0.4757080078125,-0.4559172987937927,1.3674854040145874,-0.19558346271514893,2.0751953125,-5.615234375,-3.2958984375
0.030018999999999352,-8.702922821044922,-1.6759412288665771,4.177882194519043,-0.7418212890625,-0.36865234375,-0.4725341796875,-0.41887903213500977,1.1774977445602417,-0.15028484165668488,2.62451171875,-5.7373046875,-3.60107421875
0.040019000000000915,-8.705317497253418,-1.5155296325683594,4.141968727111816,-0.741455078125,-0.3692626953125,-0.4683837890625,-0.36958348751068115,0.9824471473693848,-0.12390504777431488,3.0517578125,-4.82177734375,-3.2958984375
0.05001999999999995,-8.597578048706055,-1.3958195447921753,4.292803764343262,-0.7418212890625,-0.3692626953125,-0.4656982421875,-0.335742712020874,0.8412220478057861,-0.11351301521062851,2.99072265625,-3.35693359375,-2.5634765625
0.06002000000000152,-8.391676902770996,-1.381454348564148,4.28322696685791,-0.7520751953125,-0.3660888671875,-0.470458984375,-0.32375189661979675,0.767944872379303,-0.12044104188680649,2.86865234375,-1.8310546875,-1.953125
0.07001900000000205,-8.374917984008789,-1.3742717504501343,4.134786128997803,-0.74462890625,-0.36962890625,-0.468994140625,-0.3178897500038147,0.6805451512336731,-0.12976722419261932,2.8076171875,-1.15966796875,-1.40380859375
0.08002000000000109,-8.451532363891602,-1.4173674583435059,4.216189384460449,-0.730712890625,-0.36328125,-0.468994140625,-0.29763856530189514,0.5529096722602844,-0.13376416265964508,3.0517578125,-0.48828125,-0.79345703125
0.09001900000000163,-8.628703117370605,-1.525106430053711,4.2544965744018555,-0.742919921875,-0.3597412109375,-0.476806640625,-0.26939356327056885,0.47057273983955383,-0.13562940061092377,3.41796875,0.244140625,-0.244140625
0.10002000000000066,-8.614337921142578,-1.5538369417190552,4.2760443687438965,-0.753662109375,-0.362060546875,-0.4827880859375,-0.2403491586446762,0.3874364495277405,-0.11084839701652527,3.23486328125,0.6103515625,-0.1220703125
0.1100190000000012,-8.13789176940918,-1.4652514457702637,4.6471452713012695,-0.757568359375,-0.3660888671875,-0.4825439453125,-0.23288820683956146,0.3842388689517975,-0.07727411389350891,3.2958984375,0.42724609375,-0.54931640625
0.12001899999999921,-7.936778545379639,-1.1492167711257935,5.1595048904418945,-0.76513671875,-0.3636474609375,-0.488525390625,-0.2752557396888733,0.5683644413948059,-0.069280244410038,3.84521484375,-0.06103515625,-0.67138671875
0.13001099999999965,-8.180987358093262,-0.9624691009521484,5.310339450836182,-0.7735595703125,-0.36328125,-0.490478515625,-0.3658529818058014,0.9275559186935425,-0.09512710571289062,3.72314453125,-0.6103515625,-0.79345703125
0.14001900000000234,-8.35336971282959,-1.0462661981582642,4.697423934936523,-0.7679443359375,-0.3614501953125,-0.4906005859375,-0.4495222270488739,1.2587687969207764,-0.15374885499477386,3.662109375,-1.64794921875,-1.15966796875
0.15001900000000035,-8.573636054992676,-1.5394717454910278,4.0749311447143555,-0.765625,-0.3616943359375,-0.4853515625,-0.4889586269855499,1.3970627784729004,-0.19664931297302246,4.2724609375,-3.0517578125,-1.77001953125
0.16001999999999938,-8.868123054504395,-1.7860745191574097,3.7876269817352295,-0.77197265625,-0.365478515625,-0.478759765625,-0.5001500844955444,1.4135833978652954,-0.19052067399024963,4.638671875,-3.35693359375,-1.89208984375
0.17001899999999992,-8.741230010986328,-1.6543933153152466,3.404554843902588,-0.7708740234375,-0.365966796875,-0.4808349609375,-0.4894915819168091,1.3957304954528809,-0.17986217141151428,4.45556640625,-2.74658203125,-1.40380859375
0.1800200000000025,-8.769960403442383,-1.7310078144073486,2.4133553504943848,-0.7730712890625,-0.3673095703125,-0.47802734375,-0.4247412085533142,1.216667652130127,-0.18092802166938782,4.2724609375,-2.62451171875,-1.0986328125
0.1900189999999995,-9.02135181427002,-2.0183119773864746,1.7142484188079834,-0.7679443359375,-0.372314453125,-0.4739990234375,-0.32694944739341736,0.7711423635482788,-0.14735375344753265,4.2724609375,-2.25830078125,-0.8544921875
0.20001900000000106,-9.074024200439453,-2.027888774871826,2.0231003761291504,-0.7587890625,-0.3707275390625,-0.4730224609375,-0.2208973914384842,0.25793567299842834,-0.10178866982460022,4.82177734375,-1.5869140625,0.06103515625
0.2100200000000001,-9.26795482635498,-1.889025092124939,2.9688100814819336,-0.7420654296875,-0.36474609375,-0.47021484375,-0.15881162881851196,-0.039969369769096375,-0.07221133261919022,5.615234375,-1.46484375,1.15966796875
0.22001900000000063,-9.251194953918457,-1.778891921043396,3.5194764137268066,-0.7421875,-0.3631591796875,-0.4732666015625,-0.15241654217243195,-0.0807381272315979,-0.04689739644527435,5.79833984375,-1.3427734375,1.5869140625
0.2300190000000022,-9.059659004211426,-1.6160861253738403,3.4955344200134277,-0.7650146484375,-0.362060546875,-0.48828125,-0.1484196037054062,-0.06368453055620193,-0.035972435027360916,5.55419921875,-0.91552734375,1.77001953125
0.24002000000000123,-8.987833023071289,-1.5155296325683594,3.44765043258667,-0.7745361328125,-0.3658447265625,-0.48583984375,-0.13802756369113922,-0.06475038081407547,-0.04716385900974274,5.43212890625,-1.220703125,2.25830078125
0.25001999999999924,-8.820239067077637,-1.556231141090393,3.5410242080688477,-0.7764892578125,-0.3748779296875,-0.4808349609375,-0.1430903524160385,-0.019718224182724953,-0.07167840749025345,5.79833984375,-2.13623046875,2.685546875
0.2600189999999998,-8.863334655761719,-1.580173134803772,3.514688014984131,-0.7708740234375,-0.3680419921875,-0.4827880859375,-0.15881162881851196,0.06368453055620193,-0.10951608419418335,6.34765625,-2.8076171875,2.74658203125
0.27001900000000134,-8.980650901794434,-1.5873557329177856,3.5003228187561035,-0.7716064453125,-0.3743896484375,-0.4698486328125,-0.17160183191299438,0.1500183790922165,-0.1564134806394577,6.4697265625,-3.23486328125,2.86865234375
0.2800200000000004,-9.131484985351562,-1.745373010635376,3.4572272300720215,-0.7623291015625,-0.3861083984375,-0.4639892578125,-0.1846584975719452,0.243813157081604,-0.2009127140045166,7.01904296875,-2.685546875,3.0517578125
0.2900109999999998,-9.23443603515625,-1.9776105880737305,3.603273630142212,-0.7744140625,-0.374267578125,-0.4674072265625,-0.20517610013484955,0.3341439664363861,-0.24088208377361298,7.50732421875,-1.708984375,2.9296875
0.3000190000000025,-9.21288776397705,-2.070984363555908,3.8067808151245117,-0.775390625,-0.3516845703125,-0.488037109375,-0.2454119473695755,0.4500551223754883,-0.27072587609291077,7.99560546875,-1.8310546875,3.0517578125
0.3100190000000005,-8.949525833129883,-1.9177556037902832,3.936067581176758,-0.7916259765625,-0.361083984375,-0.48193359375,-0.2984379827976227,0.5939448475837708,-0.2947075068950653,7.568359375,-2.13623046875,3.35693359375
0.3200199999999995,-8.71489429473877,-1.6711528301239014,3.883395195007324,-0.7867431640625,-0.35986328125,-0.4869384765625,-0.3440030515193939,0.7418316006660461,-0.300303190946579,8.056640625,-4.21142578125,2.44140625
0.33001600000000053,-8.65743350982666,-1.6112977266311646,3.7229835987091064,-0.8001708984375,-0.3701171875,-0.4674072265625,-0.38477182388305664,0.8771944642066956,-0.30430012941360474,8.97216796875,-5.859375,2.38037109375
0.3400190000000016,-8.724471092224121,-1.7118542194366455,3.603273630142212,-0.8218994140625,-0.3658447265625,-0.4432373046875,-0.41088512539863586,0.9901745915412903,-0.3029678165912628,10.009765625,-8.60595703125,1.52587890625
0.35001899999999964,-8.863334655761719,-2.013523578643799,3.4763808250427246,-0.7664794921875,-0.374267578125,-0.4547119140625,-0.4330015182495117,1.108217477798462,-0.28591424226760864,11.962890625,-13.85498046875,0.244140625
0.3600200000000022,-8.731653213500977,-2.0183119773864746,3.023876667022705,-0.722900390625,-0.3585205078125,-0.4625244140625,-0.4527197480201721,1.2060091495513916,-0.2715252637863159,12.39013671875,-15.07568359375,-1.03759765625
0.37002000000000024,-8.765172004699707,-1.98958158493042,2.5498247146606445,-0.7750244140625,-0.36767578125,-0.443603515625,-0.4631117880344391,1.2427810430526733,-0.2606002986431122,11.77978515625,-11.77978515625,-0.9765625
0.3800190000000008,-8.868123054504395,-2.1140801906585693,2.145204782485962,-0.775634765625,-0.3631591796875,-0.43115234375,-0.46177947521209717,1.204410433769226,-0.24674426019191742,11.77978515625,-10.8642578125,-0.6103515625
0.39001900000000234,-8.892065048217773,-2.2002713680267334,1.9943699836730957,-0.77392578125,-0.3582763671875,-0.433837890625,-0.4508545398712158,1.1044869422912598,-0.23208880424499512,13.24462890625,-12.39013671875,0.3662109375
0.4000200000000014,-8.995016098022461,-2.2577321529388428,1.8722656965255737,-0.8055419921875,-0.357421875,-0.43212890625,-0.44019603729248047,0.9992342591285706,-0.21343645453453064,15.625,-14.6484375,1.03759765625
0.4100190000000019,-9.035717010498047,-2.382230758666992,1.6352397203445435,-0.7705078125,-0.36572265625,-0.4398193359375,-0.4327350854873657,0.8612067103385925,-0.18092802166938782,18.06640625,-18.9208984375,0.6103515625
0.4200189999999999,-8.83939266204834,-2.3511061668395996,1.4676456451416016,-0.7218017578125,-0.3712158203125,-0.4495849609375,-0.3972955644130707,0.6283185482025146,-0.14602144062519073,17.7001953125,-19.6533203125,-0.18310546875
0.43001600000000195,-8.743624687194824,-2.322375535964966,1.580173134803772,-0.7030029296875,-0.3648681640625,-0.4722900390625,-0.3440030515193939,0.37651148438453674,-0.11218070238828659,15.869140625,-16.90673828125,0.1220703125
0.4400189999999995,-8.815450668334961,-2.38462495803833,1.8914192914962769,-0.73046875,-0.354248046875,-0.463623046875,-0.30749770998954773,0.18972128629684448,-0.07487595826387405,13.3056640625,-12.51220703125,0.67138671875
0.4500200000000021,-8.803479194641113,-2.252943754196167,2.2361843585968018,-0.7584228515625,-0.3504638671875,-0.4517822265625,-0.2936416268348694,0.11644410341978073,-0.04929555580019951,12.451171875,-9.82666015625,1.220703125
0.46001899999999907,-8.875306129455566,-2.1116859912872314,2.410961151123047,-0.7679443359375,-0.363037109375,-0.4356689453125,-0.30403369665145874,0.19371822476387024,-0.05569066107273102,11.474609375,-8.48388671875,1.220703125
0.47002000000000166,-9.050082206726074,-2.248155355453491,2.3367409706115723,-0.75390625,-0.377197265625,-0.432373046875,-0.3365420997142792,0.3741133213043213,-0.07780704647302628,10.7421875,-6.9580078125,1.0986328125
0.48001999999999967,-9.21288776397705,-2.185906171798706,2.2625205516815186,-0.757080078125,-0.3756103515625,-0.429931640625,-0.3671852946281433,0.5755589604377747,-0.10125573724508286,9.21630859375,-4.638671875,1.28173828125
0.4900190000000002,-9.181763648986816,-2.140416383743286,1.9847931861877441,-0.771240234375,-0.3526611328125,-0.442626953125,-0.37011638283729553,0.724245011806488,-0.11964165419340134,9.27734375,-2.13623046875,1.77001953125
0.5000199999999992,-9.155426979064941,-2.1499931812286377,1.7764976024627686,-0.78173828125,-0.339599609375,-0.4434814453125,-0.35679328441619873,0.7674119472503662,-0.12950076162815094,9.21630859375,-0.67138671875,2.197265625
0.5100110000000022,-8.975862503051758,-2.1811177730560303,1.6903064250946045,-0.7667236328125,-0.354248046875,-0.4483642578125,-0.34373658895492554,0.7738069891929626,-0.13429708778858185,8.72802734375,-0.67138671875,2.13623046875
0.5200190000000013,-8.757989883422852,-2.051830768585205,1.6280571222305298,-0.7708740234375,-0.363037109375,-0.45703125,-0.3229525089263916,0.7905941605567932,-0.13589586317539215,7.26318359375,-0.30517578125,1.3427734375
0.5300189999999994,-8.650250434875488,-1.86508309841156,1.623268723487854,-0.791748046875,-0.3555908203125,-0.466796875,-0.3013690710067749,0.8105788826942444,-0.1366952508687973,6.2255859375,-0.1220703125,1.220703125
0.5400190000000009,-8.999804496765137,-1.9943699836730957,1.1228805780410767,-0.801025390625,-0.359375,-0.4630126953125,-0.26939356327056885,0.7732741236686707,-0.14708729088306427,5.4931640625,-1.52587890625,1.03759765625
0.5500190000000025,-9.485827445983887,-2.451662540435791,0.6057330369949341,-0.79931640625,-0.3602294921875,-0.448974609375,-0.2374180555343628,0.6240551471710205,-0.1401592642068863,4.7607421875,-3.662109375,0.54931640625
0.5600200000000015,-9.624691009521484,-2.52109432220459,0.45250412821769714,-0.788330078125,-0.36083984375,-0.43798828125,-0.2009127140045166,0.41887903213500977,-0.10818377137184143,4.8828125,-6.2255859375,-0.18310546875
0.5700199999999995,-9.555258750915527,-2.4372973442077637,0.6655880808830261,-0.792724609375,-0.353515625,-0.4410400390625,-0.1564134806394577,0.23155589401721954,-0.07327718287706375,5.55419921875,-8.85009765625,-1.220703125
0.5800190000000001,-9.44991397857666,-2.432508945465088,0.9744400978088379,-0.7921142578125,-0.3466796875,-0.4515380859375,-0.12603674829006195,0.14522205293178558,-0.03677182272076607,5.859375,-10.55908203125,-1.46484375
0.5900169999999996,-9.062053680419922,-2.3247697353363037,1.1971008777618408,-0.787109375,-0.347900390625,-0.45849609375,-0.10285452008247375,0.1103154644370079,-0.007194486912339926,5.37109375,-11.474609375,-1.52587890625
0.6000200000000007,-8.772355079650879,-2.1571757793426514,1.316810965538025,-0.7803955078125,-0.3472900390625,-0.468505859375,-0.07647473365068436,0.06901378184556961,0.011724349111318588,3.96728515625,-11.29150390625,-1.64794921875
0.6100200000000022,-8.803479194641113,-2.2385785579681396,1.192312479019165,-0.7828369140625,-0.3511962890625,-0.4649658203125,-0.058088820427656174,-0.003197549842298031,0.01598774828016758,3.11279296875,-11.04736328125,-1.46484375
0.6200200000000002,-8.925583839416504,-2.387019157409668,1.036689281463623,-0.7880859375,-0.3594970703125,-0.4637451171875,-0.04369984567165375,-0.10018989443778992,0.011724349111318588,2.8076171875,-11.1083984375,-1.220703125
0.6300200000000018,-9.131484985351562,-2.3965959548950195,1.0319008827209473,-0.792236328125,-0.3612060546875,-0.4561767578125,-0.019185297191143036,-0.21050535142421722,0.003197549842298031,3.47900390625,-11.90185546875,-1.220703125
0.6400199999999998,-9.337387084960938,-2.4229321479797363,1.0845733880996704,-0.7823486328125,-0.3577880859375,-0.4488525390625,0.0023981621488928795,-0.3016355037689209,-0.002931087277829647,4.638671875,-13.00048828125,-1.15966796875
0.6500190000000003,-9.634267807006836,-2.494758129119873,1.2234370708465576,-0.767333984375,-0.3507080078125,-0.4466552734375,0.030110260471701622,-0.37997549772262573,-0.006661561783403158,5.2490234375,-14.09912109375,-0.8544921875
0.6600190000000019,-9.940725326538086,-2.628833532333374,1.4532804489135742,-0.7589111328125,-0.3497314453125,-0.4375,0.045032158493995667,-0.3999601900577545,-0.0013323123566806316,5.37109375,-14.892578125,-0.8544921875
0.6700189999999999,-9.95748519897461,-2.7222073078155518,1.7717092037200928,-0.7506103515625,-0.35400390625,-0.410888671875,0.04876263439655304,-0.29710566997528076,0.02238284796476364,4.5166015625,-14.2822265625,-1.52587890625
0.680019999999999,-9.883264541625977,-2.6168625354766846,1.7142484188079834,-0.7520751953125,-0.3587646484375,-0.40869140625,0.05196018144488335,-0.11830934137105942,0.05302603542804718,4.5166015625,-14.2822265625,-1.52587890625
0.6900289999999991,-9.615114212036133,-2.540247917175293,1.4748282432556152,-0.756103515625,-0.36328125,-0.4154052734375,0.05782235786318779,0.011724349111318588,0.07754058390855789,1.77001953125,-8.30078125,-1.3427734375
0.700016999999999,-9.26795482635498,-2.5067291259765625,1.2401964664459229,-0.7586669921875,-0.3602294921875,-0.42041015625,0.04263399541378021,0.0972588062286377,0.08713322877883911,1.77001953125,-8.30078125,-1.3427734375
0.7100290000000022,-8.980650901794434,-2.4420857429504395,1.1851298809051514,-0.763671875,-0.357177734375,-0.41650390625,0.025580398738384247,0.1481531262397766,0.08366922289133072,0.54931640625,-5.43212890625,-0.732421875
0.7200200000000017,-8.932766914367676,-2.3582887649536133,0.9528923034667969,-0.7694091796875,-0.361328125,-0.4091796875,0.024514546617865562,0.14468912780284882,0.08793261647224426,0.54931640625,-5.43212890625,-0.732421875
0.7300280000000008,-8.846575736999512,-2.300827741622925,0.9864110946655273,-0.7694091796875,-0.3629150390625,-0.406005859375,0.02291577309370041,0.07860642671585083,0.10338743776082993,0.67138671875,-3.41796875,-0.79345703125
0.7400100000000016,-8.798690795898438,-2.2816741466522217,1.2521674633026123,-0.76953125,-0.3653564453125,-0.3914794921875,0.029577335342764854,0.08020520955324173,0.10818377137184143,0.67138671875,-3.41796875,-0.79345703125
0.7499900000000004,-8.83699893951416,-2.2840683460235596,1.2617442607879639,-0.7694091796875,-0.3646240234375,-0.387939453125,0.038637056946754456,0.12390504777431488,0.11537826061248779,0.42724609375,-1.8310546875,-2.38037109375
0.7600200000000008,-8.75080680847168,-2.205059766769409,1.0965443849563599,-0.775390625,-0.359619140625,-0.3927001953125,0.014388973824679852,0.15428178012371063,0.10924961417913437,0.0,-1.46484375,-3.2958984375
0.7700200000000024,-8.722076416015625,-2.161964178085327,1.072602391242981,-0.779296875,-0.36376953125,-0.3865966796875,-0.026646247133612633,0.1662725806236267,0.07194487005472183,-0.30517578125,-0.8544921875,-3.96728515625
0.7800110000000018,-8.947132110595703,-2.1811177730560303,1.2210428714752197,-0.7774658203125,-0.362548828125,-0.392822265625,-0.03837059438228607,0.15374885499477386,0.031176110729575157,-1.03759765625,-0.54931640625,-4.21142578125
0.7900109999999998,-9.10993766784668,-2.298433542251587,1.3503297567367554,-0.78857421875,-0.360595703125,-0.3909912109375,-0.0444992333650589,0.15428178012371063,0.02371516078710556,-1.3427734375,-0.1220703125,-4.150390625
0.8000190000000025,-9.222464561462402,-2.274491548538208,1.3024457693099976,-0.78857421875,-0.360595703125,-0.3909912109375,-0.0559571199119091,0.1827932745218277,0.030110260471701622,-1.3427734375,-0.1220703125,-4.150390625
0.8100009999999997,-9.3828763961792,-2.2385785579681396,1.2665326595306396,-0.802734375,-0.37890625,-0.3895263671875,-0.0708790197968483,0.20677487552165985,0.03490658476948738,-1.220703125,0.6103515625,-4.08935546875
0.8200199999999995,-9.406818389892578,-2.2577321529388428,1.256955862045288,-0.802734375,-0.37890625,-0.3895263671875,-0.07887289673089981,0.20810718834400177,0.03890352323651314,-1.220703125,0.6103515625,-4.08935546875
0.8299970000000023,-9.27034854888916,-2.22660756111145,1.1851298809051514,-0.813232421875,-0.3743896484375,-0.4029541015625,-0.07780704647302628,0.17719754576683044,0.05009494721889496,-0.9765625,1.220703125,-3.90625
0.8400190000000016,-9.119514465332031,-2.1284453868865967,1.2306196689605713,-0.813232421875,-0.3743896484375,-0.4029541015625,-0.08127105236053467,0.12630322575569153,0.05569066107273102,-0.54931640625,0.9765625,-3.72314453125
0.8500289999999993,-8.655038833618164,-1.7812861204147339,1.2234370708465576,-0.8170166015625,-0.3714599609375,-0.409912109375,-0.08260336518287659,0.02238284796476364,-0.011990811675786972,-0.18310546875,0.06103515625,-3.60107421875
0.8600190000000012,-9.033323287963867,-2.073378562927246,1.4437036514282227,-0.8074951171875,-0.3717041015625,-0.4049072265625,-0.08420214802026749,-0.01811944879591465,-0.0708790197968483,0.244140625,-1.220703125,-3.662109375
0.8700200000000002,-9.378087997436523,-2.382230758666992,1.3239935636520386,-0.7867431640625,-0.3677978515625,-0.4019775390625,-0.1036539077758789,-0.0002664624771568924,-0.02797855995595455,0.54931640625,-2.01416015625,-3.84521484375
0.8800200000000018,-9.402029991149902,-2.2385785579681396,1.0965443849563599,-0.778564453125,-0.3656005859375,-0.4049072265625,-0.10605207085609436,-0.03064318373799324,0.040768761187791824,0.8544921875,-2.197265625,-3.90625
0.8900190000000023,-9.193734169006348,-2.145204782485962,1.036689281463623,-0.7879638671875,-0.3599853515625,-0.415771484375,-0.09805818647146225,-0.11750995367765427,0.08500153571367264,1.0986328125,-1.220703125,-3.72314453125
0.9000190000000003,-8.980650901794434,-2.0638017654418945,1.1659762859344482,-0.8004150390625,-0.3555908203125,-0.41552734375,-0.09912404417991638,-0.1811944842338562,0.07434303313493729,1.52587890625,-0.244140625,-3.35693359375
0.9100190000000019,-9.002198219299316,-1.9943699836730957,1.3431471586227417,-0.7899169921875,-0.3515625,-0.4149169921875,-0.11351301521062851,-0.14921899139881134,0.017053598538041115,1.77001953125,-0.244140625,-3.23486328125
0.9200189999999999,-9.330204010009766,-2.1308395862579346,1.4652514457702637,-0.77587890625,-0.349609375,-0.42724609375,-0.12816844880580902,-0.07514242082834244,-0.021316997706890106,1.46484375,-0.6103515625,-3.72314453125
0.9300110000000004,-9.354146003723145,-2.1045033931732178,1.460463047027588,-0.7802734375,-0.3511962890625,-0.4281005859375,-0.11724349111318588,0.013056661002337933,-0.033041346818208694,1.15966796875,-0.54931640625,-4.45556640625
0.9400189999999995,-9.277531623840332,-2.0638017654418945,1.2282254695892334,-0.796142578125,-0.3529052734375,-0.43115234375,-0.1071179136633873,0.10098928213119507,-0.049828484654426575,0.8544921875,-0.3662109375,-4.94384765625
0.9500200000000021,-9.100360870361328,-2.0470423698425293,0.9289502501487732,-0.80712890625,-0.356201171875,-0.4298095703125,-0.098857581615448,0.14788667857646942,-0.0756753459572792,0.3662109375,-0.48828125,-5.0048828125
0.9600210000000011,-9.11233139038086,-2.166752576828003,0.8379706144332886,-0.7918701171875,-0.3560791015625,-0.428466796875,-0.09779173135757446,0.17053598165512085,-0.08713322877883911,0.06103515625,-1.15966796875,-5.06591796875
0.9700200000000017,-9.21288776397705,-2.2673089504241943,0.727837324142456,-0.7860107421875,-0.3536376953125,-0.42919921875,-0.10152220726013184,0.20224502682685852,-0.07221133261919022,0.0,-2.25830078125,-5.18798828125
0.9800190000000022,-9.366117477416992,-2.2864625453948975,0.5841852426528931,-0.7899169921875,-0.354736328125,-0.4326171875,-0.09779173135757446,0.1548146903514862,-0.04663093388080597,-0.3662109375,-3.173828125,-5.859375
0.9900190000000002,-9.334992408752441,-2.2601263523101807,0.629675030708313,-0.7882080078125,-0.35595703125,-0.4329833984375,-0.08153752237558365,0.046364475041627884,-0.025580398738384247,-0.79345703125,-3.84521484375,-6.53076171875
1.0000199999999992,-9.313444137573242,-2.276885747909546,0.8044517636299133,-0.788330078125,-0.3543701171875,-0.4271240234375,-0.07221133261919022,-0.027712099254131317,-0.01252373680472374,-0.9765625,-4.5166015625,-6.7138671875
1.0100200000000008,-9.334992408752441,-2.2625205516815186,0.950498104095459,-0.7864990234375,-0.3590087890625,-0.4232177734375,-0.06821439415216446,-0.051160797476768494,-0.006395099684596062,-1.220703125,-4.94384765625,-6.7138671875
1.0200200000000024,-9.402029991149902,-2.2002713680267334,1.0845733880996704,-0.7822265625,-0.36767578125,-0.41015625,-0.06634915620088577,-0.050361406058073044,-0.006395099684596062,-1.46484375,-5.18798828125,-6.77490234375
1.0300189999999994,-9.346963882446289,-2.123656988143921,1.2042834758758545,-0.7730712890625,-0.3687744140625,-0.4051513671875,-0.06661561876535416,-0.004263399634510279,-0.02717917412519455,-1.708984375,-4.638671875,-6.65283203125
1.040020000000002,-9.294290542602539,-2.049436569213867,1.3287819623947144,-0.7760009765625,-0.3597412109375,-0.415283203125,-0.08926492929458618,0.07833997160196304,-0.06688208132982254,-2.01416015625,-2.9296875,-6.28662109375
1.0500190000000025,-9.27034854888916,-1.9847931861877441,1.5610195398330688,-0.77978515625,-0.35595703125,-0.4193115234375,-0.1201745793223381,0.22436140477657318,-0.11964165419340134,-2.13623046875,-1.03759765625,-5.859375
1.0600190000000005,-9.148244857788086,-2.0254945755004883,1.5753847360610962,-0.7841796875,-0.352783203125,-0.425537109375,-0.13882695138454437,0.3653200566768646,-0.16520673036575317,-2.01416015625,0.732421875,-5.18798828125
1.070019000000002,-9.07641887664795,-2.0231003761291504,1.599326729774475,-0.7862548828125,-0.35546875,-0.425537109375,-0.15561409294605255,0.5220000147819519,-0.19851453602313995,-2.197265625,1.89208984375,-4.82177734375
1.080020000000001,-9.172186851501465,-2.10210919380188,1.3215993642807007,-0.7916259765625,-0.355224609375,-0.4169921875,-0.15614700317382812,0.6445727348327637,-0.2174333930015564,-2.38037109375,2.25830078125,-4.57763671875
1.090019999999999,-9.387664794921875,-2.27209734916687,0.9648633003234863,-0.788818359375,-0.35888671875,-0.419189453125,-0.14282388985157013,0.6720184087753296,-0.20144562423229218,-2.74658203125,2.01416015625,-4.57763671875
1.1000189999999996,-9.567230224609375,-2.3942017555236816,0.727837324142456,-0.78076171875,-0.364013671875,-0.4119873046875,-0.12816844880580902,0.6459050178527832,-0.15747931599617004,-2.62451171875,1.15966796875,-5.06591796875
1.1100200000000022,-9.552865028381348,-2.473210334777832,0.5937620401382446,-0.78271484375,-0.3671875,-0.409912109375,-0.10951608419418335,0.5915467143058777,-0.10791730135679245,-2.38037109375,0.30517578125,-5.43212890625
1.1200200000000002,-9.385271072387695,-2.432508945465088,0.5482721924781799,-0.7891845703125,-0.364013671875,-0.4083251953125,-0.09939049929380417,0.49855130910873413,-0.07887289673089981,-2.197265625,-0.244140625,-5.615234375
1.1300190000000008,-9.248801231384277,-2.2649147510528564,0.933738648891449,-0.7862548828125,-0.3658447265625,-0.411865234375,-0.10658498853445053,0.5006830096244812,-0.06821439415216446,-2.44140625,-0.244140625,-5.43212890625
1.1400190000000023,-9.131484985351562,-2.1739351749420166,0.9552865028381348,-0.78662109375,-0.368408203125,-0.408935546875,-0.1287013739347458,0.5726279020309448,-0.07514242082834244,-2.685546875,0.3662109375,-4.94384765625
1.1500190000000003,-9.23682975769043,-2.1140801906585693,0.933738648891449,-0.7918701171875,-0.3756103515625,-0.405029296875,-0.15268300473690033,0.6520336866378784,-0.09965696930885315,-2.62451171875,1.64794921875,-4.0283203125
1.1600199999999994,-9.457097053527832,-2.097320795059204,0.9481038451194763,-0.7857666015625,-0.3792724609375,-0.4178466796875,-0.18252679705619812,0.7871301174163818,-0.14788667857646942,-2.44140625,3.5400390625,-3.23486328125
1.170019,-9.718064308166504,-2.2002713680267334,0.9265560507774353,-0.7767333984375,-0.36767578125,-0.42529296875,-0.20064625144004822,0.9339510202407837,-0.18679021298885345,-2.13623046875,5.67626953125,-2.86865234375
1.180019999999999,-9.583989143371582,-2.3104045391082764,0.8068459630012512,-0.7913818359375,-0.3609619140625,-0.4371337890625,-0.20650841295719147,1.0847687721252441,-0.21450228989124298,-2.44140625,7.8125,-2.86865234375
1.1900200000000005,-9.29189682006836,-2.3367409706115723,0.4908113479614258,-0.814208984375,-0.3629150390625,-0.4449462890625,-0.2206309288740158,1.2283920049667358,-0.22516079246997833,-2.9296875,9.1552734375,-3.0517578125
1.200020000000002,-9.282320022583008,-2.4229321479797363,-0.10055647045373917,-0.8114013671875,-0.3651123046875,-0.44091796875,-0.22995711863040924,1.3008697032928467,-0.21556814014911652,-3.11279296875,8.544921875,-2.9296875
1.21002,-9.215282440185547,-2.559401512145996,-0.7182605266571045,-0.7991943359375,-0.3592529296875,-0.44580078125,-0.2107718288898468,1.18602454662323,-0.18998774886131287,-2.8076171875,6.9580078125,-2.86865234375
1.2200190000000006,-9.05247688293457,-2.5498247146606445,-0.9457096457481384,-0.7900390625,-0.357666015625,-0.4442138671875,-0.1859908103942871,1.0106922388076782,-0.1614762544631958,-2.44140625,5.0048828125,-3.23486328125
1.2300199999999997,-8.983044624328613,-2.5785553455352783,-1.0630255937576294,-0.7791748046875,-0.3543701171875,-0.4381103515625,-0.1710689216852188,0.83029705286026,-0.1430903524160385,-2.25830078125,2.99072265625,-3.7841796875
1.2400190000000002,-8.971074104309082,-2.535459518432617,-0.6416460275650024,-0.76611328125,-0.3551025390625,-0.43701171875,-0.1582787185907364,0.6770811676979065,-0.1284349113702774,-2.50244140625,1.64794921875,-3.90625
1.2500190000000018,-8.944737434387207,-2.4588451385498047,-0.21547815203666687,-0.7548828125,-0.3577880859375,-0.4364013671875,-0.15934456884860992,0.6749494671821594,-0.12310566753149033,-2.50244140625,1.46484375,-3.84521484375
1.2600189999999998,-8.856152534484863,-2.454056739807129,-0.1173158809542656,-0.7618408203125,-0.3541259765625,-0.444580078125,-0.17559877038002014,0.7570199370384216,-0.12470444291830063,-2.685546875,2.74658203125,-3.96728515625
1.2700190000000013,-8.832210540771484,-2.4133553504943848,-0.1149216815829277,-0.773193359375,-0.3590087890625,-0.4453125,-0.19052067399024963,0.8564104437828064,-0.1300336867570877,-2.685546875,3.84521484375,-3.96728515625
1.2800200000000004,-8.937555313110352,-2.494758129119873,-0.5841852426528931,-0.770751953125,-0.365478515625,-0.4423828125,-0.20357733964920044,0.9150322079658508,-0.14255742728710175,-2.01416015625,4.08935546875,-3.41796875
1.290019000000001,-9.196128845214844,-2.5067291259765625,-1.0271124839782715,-0.7623291015625,-0.3658447265625,-0.4384765625,-0.20011331140995026,0.8465512990951538,-0.14628790318965912,-0.79345703125,4.21142578125,-2.86865234375
1.300018999999999,-9.349357604980469,-2.451662540435791,-0.9361328482627869,-0.7593994140625,-0.3642578125,-0.440185546875,-0.1777304857969284,0.7135865688323975,-0.14202450215816498,0.42724609375,4.638671875,-2.5634765625
1.310017000000002,-9.370905876159668,-2.3918075561523438,-0.7924807667732239,-0.771728515625,-0.3634033203125,-0.443603515625,-0.16893720626831055,0.6904042959213257,-0.13536293804645538,1.15966796875,4.82177734375,-2.38037109375
1.320019000000002,-9.279925346374512,-2.5043349266052246,-1.235408067703247,-0.782958984375,-0.36083984375,-0.4444580078125,-0.16014394164085388,0.6669555902481079,-0.14788667857646942,1.220703125,4.82177734375,-2.197265625
1.330019,-9.172186851501465,-2.4157495498657227,-1.235408067703247,-0.7930908203125,-0.3626708984375,-0.451416015625,-0.14628790318965912,0.5792893767356873,-0.17533230781555176,0.732421875,4.82177734375,-1.953125
1.3400190000000016,-9.05247688293457,-2.408566951751709,-1.0678139925003052,-0.79296875,-0.3580322265625,-0.4610595703125,-0.13882695138454437,0.5462480783462524,-0.1894548088312149,0.244140625,4.33349609375,-1.89208984375
1.3500189999999996,-9.155426979064941,-2.4612393379211426,-1.0821791887283325,-0.78125,-0.3502197265625,-0.463134765625,-0.135096475481987,0.5569065809249878,-0.18066155910491943,-0.06103515625,3.0517578125,-2.3193359375
1.3600190000000012,-9.311050415039062,-2.6144683361053467,-1.1348515748977661,-0.7744140625,-0.35205078125,-0.4599609375,-0.1287013739347458,0.5678315758705139,-0.16174273192882538,-0.79345703125,1.708984375,-2.9296875
1.3700189999999992,-9.193734169006348,-2.6240451335906982,-1.137245774269104,-0.7734375,-0.3489990234375,-0.4610595703125,-0.13722817599773407,0.6107320189476013,-0.14548850059509277,-1.3427734375,1.3427734375,-3.47900390625
1.3800200000000018,-9.026140213012695,-2.5043349266052246,-1.292868971824646,-0.781494140625,-0.3531494140625,-0.460693359375,-0.16520673036575317,0.7050597071647644,-0.16947013139724731,-2.01416015625,1.3427734375,-3.5400390625
1.3900199999999998,-8.846575736999512,-2.52109432220459,-1.3503297567367554,-0.7919921875,-0.3480224609375,-0.467529296875,-0.19078712165355682,0.7887288928031921,-0.2107718288898468,-2.62451171875,1.46484375,-3.7841796875
1.4000200000000014,-8.815450668334961,-2.52109432220459,-1.4700398445129395,-0.7906494140625,-0.3514404296875,-0.4659423828125,-0.20224502682685852,0.8673353791236877,-0.2390168458223343,-3.35693359375,1.03759765625,-4.45556640625
1.4100199999999994,-8.858546257019043,-2.63362193107605,-1.7094600200653076,-0.7720947265625,-0.3548583984375,-0.461669921875,-0.18918836116790771,0.8801255822181702,-0.24461255967617035,-3.41796875,0.06103515625,-4.82177734375
1.420020000000001,-8.942343711853027,-2.631227731704712,-1.8938134908676147,-0.764404296875,-0.358154296875,-0.45654296875,-0.17346706986427307,0.8604073524475098,-0.2371516078710556,-3.11279296875,-0.67138671875,-5.126953125
1.4300190000000015,-9.102754592895508,-2.691082715988159,-2.1116859912872314,-0.7587890625,-0.3631591796875,-0.4486083984375,-0.15561409294605255,0.8148422837257385,-0.224094957113266,-2.74658203125,-0.8544921875,-5.43212890625
1.4400189999999995,-9.11233139038086,-2.7916390895843506,-2.118868589401245,-0.75439453125,-0.3626708984375,-0.457275390625,-0.13722817599773407,0.728774905204773,-0.20357733964920044,-2.99072265625,-0.79345703125,-5.55419921875
1.450011,-8.992621421813965,-2.808398485183716,-2.1308395862579346,-0.7650146484375,-0.364013671875,-0.457275390625,-0.12124042212963104,0.6570964455604553,-0.1777304857969284,-2.86865234375,-0.79345703125,-5.4931640625
1.460018999999999,-8.796297073364258,-2.808398485183716,-2.1092917919158936,-0.7637939453125,-0.36328125,-0.4580078125,-0.11298009008169174,0.5824869871139526,-0.1697366088628769,-2.5634765625,-0.91552734375,-5.18798828125
1.4700179999999996,-8.712499618530273,-2.868253707885742,-2.0590133666992188,-0.7666015625,-0.3660888671875,-0.4599609375,-0.10578560084104538,0.5251975059509277,-0.1662725806236267,-2.50244140625,-0.9765625,-4.5166015625
1.4800190000000022,-8.671798706054688,-2.920926094055176,-1.9081788063049316,-0.767822265625,-0.362060546875,-0.464111328125,-0.10818377137184143,0.4929555654525757,-0.15907810628414154,-2.25830078125,-0.8544921875,-4.08935546875
1.4900200000000012,-8.69095230102539,-2.9544448852539062,-1.7741034030914307,-0.7642822265625,-0.3590087890625,-0.45947265625,-0.11724349111318588,0.4953537583351135,-0.14282388985157013,-2.3193359375,-0.67138671875,-3.7841796875
1.5000190000000018,-8.683769226074219,-2.9233202934265137,-1.7956513166427612,-0.7542724609375,-0.361083984375,-0.456298828125,-0.13376416265964508,0.5454487204551697,-0.12710259854793549,-2.44140625,-0.18310546875,-3.60107421875
1.5100189999999998,-8.667010307312012,-2.87064790725708,-1.9105730056762695,-0.7537841796875,-0.3602294921875,-0.460205078125,-0.1532159149646759,0.5923460721969604,-0.11511179059743881,-2.197265625,0.732421875,-3.47900390625
1.5200190000000013,-8.848969459533691,-2.8610711097717285,-1.920149803161621,-0.7581787109375,-0.3570556640625,-0.4703369140625,-0.1732006072998047,0.6083338260650635,-0.09965696930885315,-2.197265625,0.732421875,-3.47900390625
1.5300280000000015,-8.884882926940918,-2.8179752826690674,-2.03507137298584,-0.75830078125,-0.3529052734375,-0.4715576171875,-0.19132006168365479,0.6176600456237793,-0.08286983519792557,-1.28173828125,2.0751953125,-3.41796875
1.540019000000001,-8.765172004699707,-2.7054479122161865,-2.1930887699127197,-0.74658203125,-0.3609619140625,-0.4615478515625,-0.20650841295719147,0.6419081091880798,-0.07434303313493729,-1.28173828125,2.0751953125,-3.41796875
1.550028000000001,-8.700529098510742,-2.760514497756958,-2.63362193107605,-0.754150390625,-0.363525390625,-0.4644775390625,-0.2078407257795334,0.6365788578987122,-0.07301072031259537,-0.06103515625,3.96728515625,-2.13623046875
1.5600200000000015,-8.774748802185059,-2.8107926845550537,-2.9281086921691895,-0.7572021484375,-0.3558349609375,-0.468505859375,-0.18732312321662903,0.4953537583351135,-0.057555895298719406,-0.06103515625,3.96728515625,-2.13623046875
1.5700269999999996,-8.667010307312012,-2.832340717315674,-2.7724854946136475,-0.7474365234375,-0.35302734375,-0.47216796875,-0.1662725806236267,0.35972434282302856,-0.03490658476948738,0.18310546875,4.33349609375,-1.953125
1.5800100000000015,-8.671798706054688,-2.9328970909118652,-2.6384103298187256,-0.7513427734375,-0.3515625,-0.4794921875,-0.15588054060935974,0.3061653971672058,-0.022649310529232025,0.18310546875,4.33349609375,-1.953125
1.5900250000000007,-8.753201484680176,-2.868253707885742,-2.4205379486083984,-0.750732421875,-0.34716796875,-0.482666015625,-0.1582787185907364,0.3128269612789154,-0.028777947649359703,0.06103515625,4.57763671875,-1.8310546875
1.6000200000000007,-8.633491516113281,-2.7293899059295654,-2.164358377456665,-0.7574462890625,-0.3524169921875,-0.47216796875,-0.17586523294448853,0.45698314905166626,-0.05995405837893486,-0.244140625,5.615234375,-1.52587890625
1.6100190000000012,-8.643068313598633,-2.7269957065582275,-2.43011474609375,-0.7659912109375,-0.3594970703125,-0.4698486328125,-0.20624195039272308,0.7111883759498596,-0.11990811675786972,-0.79345703125,6.7138671875,-1.220703125
1.6200200000000002,-8.767566680908203,-2.7916390895843506,-2.868253707885742,-0.7711181640625,-0.3597412109375,-0.4742431640625,-0.2206309288740158,0.8707994222640991,-0.17266768217086792,-0.8544921875,7.14111328125,-1.0986328125
1.6300190000000008,-8.78193187713623,-2.9496564865112305,-2.9448680877685547,-0.776611328125,-0.3577880859375,-0.4879150390625,-0.22622664272785187,0.9294211268424988,-0.18412558734416962,-0.244140625,6.4697265625,-1.40380859375
1.6400170000000003,-8.633491516113281,-3.0166940689086914,-2.9472622871398926,-0.776611328125,-0.3577880859375,-0.4879150390625,-0.2336875945329666,0.9741868376731873,-0.1646738201379776,-0.244140625,6.4697265625,-1.40380859375
1.649998,-8.463502883911133,-2.935291290283203,-3.179499864578247,-0.7821044921875,-0.354736328125,-0.488525390625,-0.2374180555343628,0.9805818796157837,-0.13109953701496124,-0.1220703125,3.47900390625,-2.197265625
1.660019000000002,-8.33182144165039,-2.7988216876983643,-3.3949780464172363,-0.7821044921875,-0.354736328125,-0.488525390625,-0.2272924929857254,0.8684012293815613,-0.10445328801870346,-0.1220703125,3.47900390625,-2.197265625
1.6699990000000007,-8.202534675598145,-2.738966703414917,-3.450044631958008,-0.7559814453125,-0.3551025390625,-0.4761962890625,-0.21210414171218872,0.6981316804885864,-0.09779173135757446,0.3662109375,0.732421875,-2.44140625
1.680019999999999,-8.130708694458008,-2.693476915359497,-3.399766445159912,-0.7559814453125,-0.3551025390625,-0.4761962890625,-0.19558346271514893,0.572361409664154,-0.09645941853523254,0.6103515625,1.03759765625,-2.3193359375
1.6900280000000016,-8.17141056060791,-2.647987127304077,-3.2992098331451416,-0.7481689453125,-0.344970703125,-0.484375,-0.18039509654045105,0.49668607115745544,-0.09246248006820679,0.06103515625,1.40380859375,-1.89208984375
1.700019000000001,-8.13789176940918,-2.7700912952423096,-3.292027235031128,-0.74755859375,-0.34228515625,-0.495849609375,-0.1777304857969284,0.4745696783065796,-0.09539356082677841,-0.42724609375,1.8310546875,-1.8310546875
1.710018999999999,-8.40843677520752,-2.9759926795959473,-3.3925838470458984,-0.74462890625,-0.3424072265625,-0.4815673828125,-0.18838897347450256,0.5068116188049316,-0.09912404417991638,-0.732421875,2.25830078125,-2.01416015625
1.7200170000000021,-8.667010307312012,-3.028665065765381,-3.5482068061828613,-0.718017578125,-0.3489990234375,-0.4810791015625,-0.20677487552165985,0.5587717890739441,-0.0972588062286377,-1.3427734375,2.5634765625,-2.0751953125
1.7300190000000022,-8.731653213500977,-3.047818660736084,-3.6822822093963623,-0.7333984375,-0.3494873046875,-0.48779296875,-0.21716691553592682,0.5936784148216248,-0.09539356082677841,-1.28173828125,3.96728515625,-2.44140625
1.7400190000000002,-8.53293514251709,-2.9281086921691895,-3.6942532062530518,-0.769287109375,-0.3536376953125,-0.490234375,-0.22302909195423126,0.6213905215263367,-0.09965696930885315,-0.91552734375,5.06591796875,-2.74658203125
1.7500190000000018,-8.209717750549316,-2.8658595085144043,-3.6774938106536865,-0.7744140625,-0.3516845703125,-0.501220703125,-0.22942420840263367,0.6307166814804077,-0.10738438367843628,-0.9765625,5.06591796875,-2.86865234375
1.7600200000000008,-7.982268333435059,-2.734178304672241,-3.5386300086975098,-0.764404296875,-0.3482666015625,-0.5029296875,-0.22702603042125702,0.5880826711654663,-0.10258805006742477,-0.67138671875,4.150390625,-2.5634765625
1.7700190000000013,-7.807491779327393,-2.7557260990142822,-3.584120035171509,-0.755615234375,-0.3543701171875,-0.49609375,-0.22862480580806732,0.5361225008964539,-0.08660030364990234,0.0,3.0517578125,-2.38037109375
1.7800189999999994,-7.718906402587891,-2.738966703414917,-3.845088005065918,-0.7520751953125,-0.3536376953125,-0.4976806640625,-0.21769985556602478,0.4513874351978302,-0.07540887594223022,0.6103515625,2.685546875,-2.13623046875
1.790019000000001,-7.771578788757324,-2.7892448902130127,-3.9839515686035156,-0.7529296875,-0.347900390625,-0.505126953125,-0.19638285040855408,0.3096293807029724,-0.06288514286279678,1.3427734375,2.0751953125,-1.708984375
1.800018999999999,-7.965508937835693,-2.940079689025879,-4.0533833503723145,-0.75,-0.34375,-0.498779296875,-0.17026951909065247,0.16680550575256348,-0.04529862105846405,1.77001953125,0.48828125,-2.01416015625
1.8100109999999994,-8.034940719604492,-2.942473888397217,-4.199429988861084,-0.7412109375,-0.3521728515625,-0.4947509765625,-0.14388974010944366,0.04876263439655304,-0.026113322004675865,1.8310546875,-0.91552734375,-2.50244140625
1.820019000000002,-8.109161376953125,-2.894589900970459,-3.974374771118164,-0.7529296875,-0.34619140625,-0.5030517578125,-0.1236385926604271,-0.013056661002337933,-0.023981623351573944,1.8310546875,-0.91552734375,-2.50244140625
1.830019,-8.22887134552002,-2.8778305053710938,-3.6798880100250244,-0.75439453125,-0.34228515625,-0.4959716796875,-0.12310566753149033,0.05062786862254143,-0.04476569592952728,1.953125,-0.9765625,-2.3193359375
1.840019999999999,-8.341399192810059,-2.8802247047424316,-3.706224203109741,-0.7431640625,-0.3465576171875,-0.4989013671875,-0.13296477496623993,0.2142358273267746,-0.07514242082834244,1.3427734375,-0.6103515625,-2.25830078125
1.8500170000000011,-8.398859977722168,-2.7940332889556885,-3.8522706031799316,-0.757568359375,-0.3489990234375,-0.5037841796875,-0.135096475481987,0.3210872709751129,-0.1036539077758789,0.9765625,0.06103515625,-2.25830078125
1.8600200000000022,-8.310274124145508,-2.7988216876983643,-4.182670593261719,-0.7705078125,-0.3514404296875,-0.498779296875,-0.1334977000951767,0.293108731508255,-0.10631853342056274,1.40380859375,-0.06103515625,-2.197265625
1.8700189999999992,-8.085219383239746,-2.8419175148010254,-4.218583583831787,-0.77001953125,-0.3533935546875,-0.5020751953125,-0.12417151778936386,0.16120979189872742,-0.08580091595649719,1.64794921875,-0.67138671875,-2.13623046875
1.8800200000000018,-7.881711959838867,-2.786850690841675,-4.084507942199707,-0.75927734375,-0.3502197265625,-0.5069580078125,-0.10924961417913437,0.04743032157421112,-0.05649004504084587,2.01416015625,-1.52587890625,-2.3193359375
1.8900199999999998,-8.006210327148438,-2.846705913543701,-4.0294413566589355,-0.7490234375,-0.3458251953125,-0.498779296875,-0.09592649340629578,-0.04689739644527435,-0.04476569592952728,2.5634765625,-2.86865234375,-2.8076171875
1.9000190000000003,-8.058882713317871,-2.846705913543701,-3.8977603912353516,-0.7418212890625,-0.33984375,-0.502685546875,-0.0873996913433075,-0.039969369769096375,-0.060220520943403244,2.74658203125,-3.2958984375,-3.0517578125
1.9100199999999994,-8.106766700744629,-2.920926094055176,-3.9456443786621094,-0.74365234375,-0.3428955078125,-0.4974365234375,-0.08473506569862366,0.03357427194714546,-0.09592649340629578,2.01416015625,-3.11279296875,-3.11279296875
1.920020000000001,-8.209717750549316,-3.0406360626220703,-4.0078935623168945,-0.736572265625,-0.345458984375,-0.49560546875,-0.08686677366495132,0.13109953701496124,-0.11564471572637558,1.220703125,-2.86865234375,-3.11279296875
1.930019999999999,-8.216899871826172,-3.0382418632507324,-3.93367338180542,-0.740478515625,-0.34716796875,-0.4962158203125,-0.10125573724508286,0.23182235658168793,-0.11750995367765427,0.732421875,-1.77001953125,-2.99072265625
1.9400200000000005,-8.26239013671875,-3.028665065765381,-3.8091750144958496,-0.7388916015625,-0.3487548828125,-0.4964599609375,-0.1303001493215561,0.34826645255088806,-0.1071179136633873,0.54931640625,-0.79345703125,-2.62451171875
1.950020000000002,-8.283937454223633,-3.0119056701660156,-3.6391866207122803,-0.7210693359375,-0.3548583984375,-0.49169921875,-0.16440735757350922,0.4812312424182892,-0.10232159495353699,0.67138671875,0.244140625,-2.25830078125
1.960018999999999,-8.271966934204102,-2.964021682739258,-3.5003228187561035,-0.739990234375,-0.3480224609375,-0.4940185546875,-0.21503522992134094,0.7122542262077332,-0.1185758039355278,0.6103515625,2.01416015625,-2.01416015625
1.9700200000000017,-8.022970199584961,-2.765302896499634,-3.6320040225982666,-0.7669677734375,-0.346923828125,-0.4996337890625,-0.2472771853208542,0.958732008934021,-0.16600613296031952,0.0,3.96728515625,-1.5869140625
1.9800199999999997,-7.872135162353516,-2.736572504043579,-4.256890773773193,-0.78564453125,-0.3504638671875,-0.5048828125,-0.2555375099182129,1.081038236618042,-0.20384378731250763,-0.9765625,4.69970703125,-1.40380859375
1.9900200000000012,-7.817068576812744,-2.806004285812378,-4.764461517333984,-0.7669677734375,-0.352783203125,-0.5128173828125,-0.23262174427509308,0.9864441156387329,-0.20943951606750488,-1.03759765625,3.60107421875,-1.46484375
2.0000199999999992,-7.8529815673828125,-2.9496564865112305,-5.080495834350586,-0.764892578125,-0.3455810546875,-0.508544921875,-0.19078712165355682,0.8015191555023193,-0.18572434782981873,-0.42724609375,1.46484375,-2.25830078125
2.010020000000001,-7.783549785614014,-3.047818660736084,-5.224148273468018,-0.7554931640625,-0.33984375,-0.5023193359375,-0.17080244421958923,0.5939448475837708,-0.14468912780284882,-0.1220703125,-0.54931640625,-3.41796875
2.0200190000000013,-7.649474620819092,-3.1076738834381104,-5.035006046295166,-0.7452392578125,-0.3399658203125,-0.501708984375,-0.16227564215660095,0.43246859312057495,-0.11271363496780396,-0.1220703125,-1.52587890625,-3.7841796875
2.0300189999999994,-7.556100368499756,-3.004723072052002,-4.845864295959473,-0.7447509765625,-0.34228515625,-0.5032958984375,-0.1649402678012848,0.3901010751724243,-0.09272895008325577,-0.30517578125,-1.52587890625,-3.60107421875
2.040019000000001,-7.433996200561523,-3.0119056701660156,-4.807557106018066,-0.7462158203125,-0.3427734375,-0.5032958984375,-0.1878560483455658,0.3935650587081909,-0.07700765877962112,-0.732421875,-1.5869140625,-3.5400390625
2.05002,-7.417236804962158,-2.9257144927978516,-4.819528102874756,-0.7388916015625,-0.35205078125,-0.4996337890625,-0.18199387192726135,0.3818407356739044,-0.07327718287706375,-0.67138671875,-1.77001953125,-3.47900390625
2.0600190000000005,-57.7098388671875,0.0,-62.450355529785156,-0.745361328125,-0.3455810546875,-0.515380859375,-5.019949913024902,-34.871463775634766,-29.421567916870117,-0.1220703125,-1.89208984375,-3.35693359375
2.069998000000002,-58.619632720947266,0.0,143.52760314941406,-0.7420654296875,-0.342529296875,-0.5130615234375,-0.6193790435791016,-34.871463775634766,-29.421567916870117,0.244140625,-2.62451171875,-3.47900390625
2.0799970000000023,98.18142700195312,0.0,16.03636360168457,-0.7325439453125,-0.355712890625,-0.4976806640625,3.7822561264038086,-34.871463775634766,-29.421567916870117,0.67138671875,-3.0517578125,-3.5400390625
2.0899920000000023,41.697418212890625,-155.67578125,-132.3802032470703,-0.73291015625,-0.357421875,-0.5015869140625,-0.0691746324300766,-4.923105716705322,-2.9042704105377197,1.0986328125,-2.74658203125,-3.11279296875
2.1000000000000014,59.11283874511719,0.0,33.207576751708984,-0.74609375,-0.3487548828125,-0.501708984375,12.310956001281738,-34.599021911621094,-29.421567916870117,1.77001953125,-2.0751953125,-2.3193359375
2.1100010000000005,0.2968810200691223,0.0,127.59658813476562,-0.745361328125,-0.345458984375,-0.508056640625,16.71152687072754,-34.599021911621094,-29.421567916870117,1.89208984375,-1.77001953125,-1.708984375
2.119999,-19.33078384399414,0.0,87.14414978027344,-0.7435302734375,-0.3453369140625,-0.5072021484375,21.112098693847656,-34.599021911621094,-29.421567916870117,2.13623046875,-1.89208984375,-1.52587890625
2.1299980000000005,-117.42601776123047,0.0,-36.669593811035156,-0.7423095703125,-0.3468017578125,-0.5001220703125,25.512670516967773,-34.599021911621094,-29.421567916870117,2.44140625,-2.13623046875,-1.46484375
2.1400000000000006,137.58041381835938,0.0,96.9508056640625,-0.7391357421875,-0.3525390625,-0.4989013671875,29.913240432739258,-34.599021911621094,-29.421567916870117,2.62451171875,-1.953125,-1.220703125
2.150000000000002,-156.62867736816406,0.0,58.950035095214844,-0.752197265625,-0.3475341796875,-0.51123046875,34.313812255859375,-34.599021911621094,-29.421567916870117,2.86865234375,-1.5869140625,-0.9765625
2.16,-58.57175064086914,0.0,25.852590560913086,-0.762939453125,-0.3482666015625,-0.5126953125,-31.303119659423828,-34.32658386230469,-29.421567916870117,3.41796875,-1.953125,-0.9765625
2.1699990000000007,59.11763000488281,0.0,52.82087707519531,-0.754150390625,-0.3463134765625,-0.5177001953125,-26.90254783630371,-34.32658386230469,-29.421567916870117,3.7841796875,-2.62451171875,-0.9765625
2.1799990000000022,-38.93929672241211,0.0,105.53162384033203,-0.743408203125,-0.343505859375,-0.50244140625,-22.501976013183594,-34.32658386230469,-29.421567916870117,4.0283203125,-3.72314453125,-1.3427734375
2.189990999999999,-74.11012268066406,-154.449951171875,-132.3802032470703,-0.741943359375,-0.3497314453125,-0.4935302734375,-0.0691746324300766,-4.923105716705322,-2.9042704105377197,3.662109375,-3.72314453125,-1.52587890625
2.1999910000000007,88.31731414794922,0.15322890877723694,20.685903549194336,-0.7459716796875,-0.35693359375,-0.4957275390625,0.27244165539741516,0.0,0.11919321864843369,3.23486328125,-2.74658203125,-1.28173828125
2.2099910000000023,88.31731414794922,0.15322890877723694,20.685903549194336,-0.748779296875,-0.348876953125,-0.506103515625,0.27244165539741516,0.0,0.0,2.9296875,-1.953125,-0.67138671875
2.2199969999999993,39.36067581176758,0.0,90.81207275390625,-0.7513427734375,-0.3514404296875,-0.510009765625,-5.1721343994140625,-34.054141998291016,-29.421567916870117,2.86865234375,-1.64794921875,-0.30517578125
2.229991000000002,88.31731414794922,0.15322890877723694,49.04761505126953,-0.7518310546875,-0.3511962890625,-0.509521484375,0.27244165539741516,0.0,-6.8078484535217285,3.23486328125,-1.64794921875,-0.1220703125
2.240000000000002,137.58518981933594,0.0,116.56410217285156,-0.7474365234375,-0.3494873046875,-0.504638671875,3.6300721168518066,-34.054141998291016,-29.421567916870117,3.35693359375,-1.953125,0.18310546875
2.2499970000000005,39.36067581176758,0.0,90.81207275390625,-0.7506103515625,-0.3521728515625,-0.498291015625,8.03064250946045,-34.054141998291016,-29.421567916870117,3.5400390625,-2.01416015625,0.244140625
2.259990000000002,88.31731414794922,0.15322890877723694,-133.6060333251953,-0.7239990234375,-0.35009765625,-0.4874267578125,0.27244165539741516,0.0,-6.8078484535217285,3.96728515625,-1.0986328125,0.67138671875
2.2699999999999996,-7.443572998046875,-3.2417490482330322,-4.412513732910156,-0.7198486328125,-0.328857421875,-0.5084228515625,-0.14255742728710175,-0.16387441754341125,-0.08979785442352295,3.173828125,0.67138671875,1.15966796875
2.2800189999999994,-7.429207801818848,-3.112462282180786,-4.091690540313721,-0.72900390625,-0.33447265625,-0.50390625,-0.1710689216852188,-0.05169371888041496,-0.10578560084104538,2.25830078125,2.25830078125,1.5869140625
2.290018,-7.5201873779296875,-3.1316158771514893,-4.185064792633057,-0.732177734375,-0.3406982421875,-0.5087890625,-0.207574263215065,0.138560488820076,-0.09752526879310608,1.46484375,2.62451171875,1.28173828125
2.300018999999999,40.40454864501953,0.0,120.20329284667969,-0.716796875,-0.3492431640625,-0.4920654296875,29.761056900024414,-33.781700134277344,-29.421567916870117,80.56640625,500.0,1989.74609375
2.3100000000000023,-97.86060333251953,0.0,52.835243225097656,-0.7176513671875,-0.3399658203125,-0.494384765625,34.16162872314453,-33.781700134277344,-29.421567916870117,1.708984375,3.84521484375,0.79345703125
2.3200010000000013,117.96710968017578,0.0,95.7249755859375,-0.7091064453125,-0.3310546875,-0.4951171875,-31.182861328125,-33.781700134277344,-29.421567916870117,0.8544921875,6.103515625,1.46484375
2.329999000000001,-156.62388610839844,0.0,78.5633316040039,-0.7471923828125,-0.344482421875,-0.5328369140625,-26.782289505004883,-33.781700134277344,-29.421567916870117,-0.244140625,7.2021484375,1.64794921875
2.3399990000000024,78.74529266357422,0.0,112.88661193847656,-0.7650146484375,-0.3272705078125,-0.535888671875,-22.3817195892334,-33.781700134277344,-29.421567916870117,0.6103515625,5.615234375,0.48828125
2.3500000000000014,117.96710968017578,0.0,95.7249755859375,-0.780517578125,-0.3447265625,-0.529296875,-18.253589630126953,-33.50925827026367,-29.421567916870117,0.244140625,2.685546875,-0.8544921875
2.359998000000001,137.57083129882812,0.0,57.72420120239258,-0.8070068359375,-0.3511962890625,-0.5135498046875,-13.853019714355469,-33.50925827026367,-29.421567916870117,0.67138671875,0.91552734375,-1.89208984375
2.369999,19.905393600463867,0.0,109.20911407470703,-0.7764892578125,-0.3470458984375,-0.5164794921875,-9.452447891235352,-33.50925827026367,-29.421567916870117,0.67138671875,-1.0986328125,-2.0751953125
2.3799899999999994,88.31731414794922,0.15322890877723694,20.685903549194336,-0.756103515625,-0.31689453125,-0.543212890625,0.27244165539741516,0.0,-6.8078484535217285,0.6103515625,-3.2958984375,-2.9296875
2.3899919999999995,-54.43935775756836,-150.7724609375,-132.3802032470703,-0.755126953125,-0.3228759765625,-0.5400390625,-0.0691746324300766,-4.923105716705322,-2.9042704105377197,0.3662109375,-5.43212890625,-3.7841796875
2.399999000000001,0.29209262132644653,0.0,107.98328399658203,-0.774658203125,-0.33203125,-0.5369873046875,3.7503294944763184,-33.50925827026367,-29.421567916870117,0.48828125,-7.080078125,-4.57763671875
2.41,78.68783569335938,0.0,-122.477783203125,-0.783203125,-0.3333740234375,-0.521240234375,8.150900840759277,-33.50925827026367,-29.421567916870117,0.732421875,-8.056640625,-5.18798828125
2.4199990000000007,117.9383773803711,0.0,-21.959617614746094,-0.75390625,-0.3521728515625,-0.506591796875,12.279030799865723,-33.23681640625,-29.421567916870117,0.6103515625,-8.36181640625,-4.8828125
2.4299999999999997,-78.18505096435547,0.0,24.626758575439453,-0.75732421875,-0.354736328125,-0.5035400390625,16.679601669311523,-33.23681640625,-29.421567916870117,1.40380859375,-8.544921875,-4.45556640625
2.4400010000000023,-58.55259704589844,0.0,104.30579376220703,-0.7725830078125,-0.3507080078125,-0.50634765625,21.08017349243164,-33.23681640625,-29.421567916870117,2.44140625,-8.056640625,-3.96728515625
2.4500010000000003,-97.78877258300781,0.0,62.62752914428711,-0.7750244140625,-0.3428955078125,-0.50830078125,25.480743408203125,-33.23681640625,-29.421567916870117,2.99072265625,-7.99560546875,-3.2958984375
2.460000000000001,-1.5083470344543457,9.016563415527344,-12.342109680175781,-0.7647705078125,-0.339599609375,-0.5025634765625,0.07674118876457214,-0.0005329249543137848,-0.2867136299610138,1.64794921875,-8.4228515625,-2.8076171875
2.4700190000000006,-1.6136919260025024,9.066842079162598,-12.358869552612305,-0.7677001953125,-0.3511962890625,-0.50146484375,0.08846554160118103,0.04716385900974274,-0.425274133682251,1.64794921875,-8.6669921875,-2.685546875
2.4800199999999997,-136.14389038085938,0.0,11.104307174682617,-0.7677001953125,-0.3511962890625,-0.50146484375,-7.7775068283081055,-8.321889877319336,-7.366621494293213,1.64794921875,-8.6669921875,-2.685546875
2.489998,-78.21378326416016,0.0,-151.8594207763672,-0.765869140625,-0.34228515625,-0.51953125,-26.934473037719727,-32.96437454223633,-29.421567916870117,1.77001953125,-11.1083984375,-2.685546875
2.499998999999999,39.51869201660156,0.0,110.43494415283203,-0.788330078125,-0.3297119140625,-0.5250244140625,-22.533903121948242,-32.96437454223633,-29.421567916870117,2.38037109375,-12.939453125,-2.685546875
2.510000999999999,-1.7405846118927002,9.227252960205078,-11.999738693237305,-0.7734375,-0.3349609375,-0.5125732421875,0.5714889168739319,0.627892792224884,-5.70743989944458,2.0751953125,-14.95361328125,-0.91552734375
2.5200190000000013,-1.4844050407409668,6.957550048828125,-12.179304122924805,-0.7734375,-0.3349609375,-0.5125732421875,-0.0791393592953682,0.14069218933582306,-1.8202052116394043,1.220703125,-14.46533203125,0.732421875
2.5300270000000005,-0.7541735172271729,7.043741226196289,-14.48970890045166,-0.642578125,-0.357666015625,-0.4560546875,-0.10498622059822083,0.06128636747598648,-1.520168423652649,-1.03759765625,-8.4228515625,3.11279296875
2.540020000000002,-1.2713210582733154,7.208941459655762,-14.121001243591309,-0.73779296875,-0.401123046875,-0.4376220703125,-0.0708790197968483,-0.6030045747756958,-1.2758222818374634,-2.685546875,-0.244140625,3.662109375
2.550018999999999,0.38307225704193115,7.082048416137695,-11.97100830078125,-0.7689208984375,-0.3819580078125,-0.450927734375,-0.22436140477657318,-0.6211240887641907,-1.0655834674835205,1.5869140625,1.40380859375,3.47900390625
2.5600200000000015,4.07014274597168,9.437943458557129,-12.083536148071289,-0.737548828125,-0.3421630859375,-0.4716796875,-0.21103829145431519,-0.26939356327056885,-0.5896814465522766,4.08935546875,2.3193359375,5.31005859375
2.5700199999999995,1.8483237028121948,8.995016098022461,-12.564770698547363,-0.7078857421875,-0.3272705078125,-0.5489501953125,-0.0173200611025095,-0.35306277871131897,-0.4748361110687256,2.3193359375,3.11279296875,7.14111328125
2.580019,0.24420857429504395,7.850587368011475,-13.4290771484375,-0.76953125,-0.331787109375,-0.52392578125,0.07780704647302628,-0.5678315758705139,-0.5246646404266357,1.77001953125,5.126953125,7.8125
2.5900190000000016,-0.689530074596405,6.950367450714111,-13.206416130065918,-0.8197021484375,-0.31103515625,-0.51708984375,0.102055124938488,-0.6928024291992188,-0.4218100905418396,3.23486328125,2.5634765625,4.82177734375
2.6000189999999996,-0.6919242739677429,7.283161640167236,-12.957419395446777,-0.81298828125,-0.3094482421875,-0.551513671875,0.08873200416564941,-0.7263767123222351,-0.30216845870018005,3.5400390625,-2.8076171875,2.25830078125
2.6100200000000022,-0.49320554733276367,7.687781810760498,-12.717999458312988,-0.805419921875,-0.309326171875,-0.5606689453125,0.05009494721889496,-0.7226462364196777,-0.24008269608020782,3.72314453125,-7.4462890625,1.52587890625
2.620018999999999,-0.15322890877723694,7.6351094245910645,-12.691662788391113,-0.841796875,-0.29833984375,-0.55615234375,0.05222664400935173,-0.7559540271759033,-0.21556814014911652,2.62451171875,-10.8642578125,0.9765625
2.630020000000002,0.11971008777618408,8.152256965637207,-12.356474876403809,-0.8258056640625,-0.2930908203125,-0.5745849609375,0.09539356082677841,-0.9054394960403442,-0.2059755027294159,-0.244140625,-15.56396484375,-0.30517578125
2.64002,-1.3742717504501343,8.712499618530273,-11.501745223999023,-0.8092041015625,-0.313232421875,-0.550537109375,0.04956202208995819,-0.975252628326416,-0.3429372012615204,-1.52587890625,-21.91162109375,-2.3193359375
2.6500200000000014,-5.4013190269470215,7.673416614532471,-9.617507934570312,-0.8193359375,-0.305419921875,-0.5594482421875,-0.09432771801948547,-0.7476937174797058,-0.7223798036575317,-1.89208984375,-30.3955078125,-7.080078125
2.6600199999999994,-3.2609026432037354,6.794744491577148,-9.0859956741333,-0.8577880859375,-0.30517578125,-0.5028076171875,-0.3328116536140442,-0.250741183757782,-1.0130903720855713,-1.46484375,-40.0390625,-11.962890625
2.670019,1.2856862545013428,7.723694801330566,-10.663774490356445,-0.731689453125,-0.3204345703125,-0.4107666015625,-0.35519447922706604,0.11404594779014587,-0.655231237411499,0.48828125,-47.7294921875,-15.2587890625
2.680019999999999,2.051830768585205,8.44195556640625,-11.688492774963379,-0.677490234375,-0.3309326171875,-0.456787109375,-0.30749770998954773,0.2869800925254822,-0.4910903573036194,-1.220703125,-45.95947265625,-15.380859375
2.6900210000000015,1.2186486721038818,9.454702377319336,-11.010933876037598,-0.768798828125,-0.3680419921875,-0.453369140625,-0.395430326461792,0.36958348751068115,-0.6341806650161743,-3.662109375,-38.0859375,-12.6953125
2.7000030000000024,1.3120225667953491,9.411606788635254,-11.061211585998535,-0.7889404296875,-0.3599853515625,-0.4259033203125,-0.5233322978019714,0.5068116188049316,-0.82283616065979,-1.64794921875,-34.3017578125,-10.55908203125
2.71002,1.4317326545715332,8.650250434875488,-13.687650680541992,-0.71923828125,-0.362060546875,-0.3597412109375,-0.5438498854637146,0.556373655796051,-0.9009096622467041,0.244140625,-33.8134765625,-9.33837890625
2.720017000000002,0.912190854549408,7.026981830596924,-14.808137893676758,-0.6175537109375,-0.368408203125,-0.35498046875,-0.4218100905418396,0.14895252883434296,-0.8124440908432007,1.3427734375,-30.57861328125,-8.056640625
2.7300199999999997,-0.6751648783683777,5.626373767852783,-14.197615623474121,-0.685302734375,-0.3671875,-0.4014892578125,-0.32908114790916443,-0.2422143965959549,-0.5603705644607544,2.5634765625,-21.78955078125,-6.34765625
2.7400200000000012,-1.1324573755264282,5.810727596282959,-13.852850914001465,-0.8104248046875,-0.3717041015625,-0.424560546875,-0.33361101150512695,-0.5656998157501221,-0.3325451612472534,1.40380859375,-12.51220703125,-3.90625
2.7500190000000018,-0.21547815203666687,6.909666061401367,-13.278243064880371,-0.8243408203125,-0.3939208984375,-0.4151611328125,-0.3575926423072815,-0.8169739842414856,-0.2073078155517578,1.03759765625,-9.46044921875,-0.8544921875
2.760020000000001,0.13407529890537262,7.891288757324219,-12.203246116638184,-0.7843017578125,-0.3834228515625,-0.408203125,-0.35199692845344543,-0.9571332335472107,-0.21663399040699005,4.638671875,-10.07080078125,0.8544921875
2.7700200000000024,-0.09576806426048279,7.95832633972168,-11.413159370422363,-0.7999267578125,-0.3614501953125,-0.43115234375,-0.33201226592063904,-0.967791736125946,-0.3066983222961426,5.9814453125,-10.07080078125,2.62451171875
2.7800189999999994,-0.3687070608139038,7.47230339050293,-11.346121788024902,-0.8291015625,-0.3614501953125,-0.4432373046875,-0.3112281858921051,-0.9139662981033325,-0.392232745885849,4.33349609375,-8.72802734375,4.8828125
2.790019000000001,-0.4884171485900879,7.280767440795898,-11.583148002624512,-0.8599853515625,-0.3602294921875,-0.4371337890625,-0.300303190946579,-0.8811913728713989,-0.43913015723228455,3.662109375,-7.568359375,6.77490234375
2.800021000000001,-0.751779317855835,7.0317702293396,-11.832144737243652,-0.82861328125,-0.3751220703125,-0.4237060546875,-0.2960398197174072,-0.8843889832496643,-0.44019603729248047,5.31005859375,-10.19287109375,7.62939453125
2.8100200000000015,-0.8786720037460327,6.5265936851501465,-11.927912712097168,-0.7994384765625,-0.383056640625,-0.41162109375,-0.2768545150756836,-0.9238253831863403,-0.4018254280090332,7.99560546875,-13.3056640625,6.591796875
2.8200199999999995,-1.094150185585022,6.215347766876221,-11.954249382019043,-0.775390625,-0.3765869140625,-0.4071044921875,-0.24807657301425934,-0.9869770407676697,-0.3376079499721527,10.68115234375,-14.16015625,4.5166015625
2.830019,-1.3503297567367554,6.090848922729492,-12.02607536315918,-0.788330078125,-0.3524169921875,-0.433349609375,-0.21210414171218872,-1.08050537109375,-0.2371516078710556,12.26806640625,-13.427734375,3.173828125
2.840019999999999,-1.3215993642807007,6.114790916442871,-12.361263275146484,-0.8690185546875,-0.34716796875,-0.450439453125,-0.18092802166938782,-1.231856107711792,-0.12736906111240387,12.51220703125,-12.3291015625,3.84521484375
2.8500200000000007,-0.8451532125473022,6.598419666290283,-13.022063255310059,-0.8935546875,-0.3653564453125,-0.4342041015625,-0.15188361704349518,-1.5140398740768433,-0.047696780413389206,12.39013671875,-13.5498046875,5.859375
2.860019000000001,-0.6727706789970398,6.761225700378418,-13.713987350463867,-0.8795166015625,-0.4066162109375,-0.3756103515625,-0.11324655264616013,-1.9076048135757446,-0.0015987749211490154,14.70947265625,-17.63916015625,7.4462890625
2.870018999999999,-0.6033388376235962,6.50025749206543,-14.192827224731445,-0.8865966796875,-0.424072265625,-0.3619384765625,-0.09166309237480164,-2.407754898071289,0.03357427194714546,18.06640625,-23.13232421875,7.8125
2.880020000000002,-0.5339069962501526,6.50025749206543,-14.144943237304688,-0.903076171875,-0.423828125,-0.3663330078125,-0.11084839701652527,-2.9449431896209717,0.06821439415216446,21.66748046875,-28.62548828125,7.75146484375
2.8900190000000023,-0.45489832758903503,6.739677906036377,-13.400346755981445,-0.9117431640625,-0.4061279296875,-0.3797607421875,-0.1484196037054062,-3.3899354934692383,0.11058192700147629,25.32958984375,-36.0107421875,7.38525390625
2.9000200000000014,-0.37828385829925537,6.825869083404541,-12.526463508605957,-0.9278564453125,-0.3944091796875,-0.3856201171875,-0.15454822778701782,-3.8394577503204346,0.13083307445049286,28.99169921875,-44.3115234375,6.7138671875
2.910011000000001,-0.4165911078453064,6.785167694091797,-11.508927345275879,-0.9388427734375,-0.372314453125,-0.363037109375,-0.1071179136633873,-4.238352298736572,0.15108422935009003,33.5693359375,-53.8330078125,5.55419921875
2.920020000000001,-0.16519992053508759,6.789956092834473,-10.90798282623291,-0.9525146484375,-0.3826904296875,-0.3607177734375,-0.009059724397957325,-4.623656749725342,0.18705666065216064,35.400390625,-65.185546875,3.23486328125
2.930019999999999,0.2106897532939911,7.189787864685059,-10.589553833007812,-0.958251953125,-0.38134765625,-0.3507080078125,0.15854516625404358,-5.0795745849609375,0.20331087708473206,38.14697265625,-77.45361328125,0.67138671875
2.9400189999999995,0.6057330369949341,7.7763671875,-10.20648193359375,-0.9425048828125,-0.362060546875,-0.36572265625,0.41248390078544617,-5.652735233306885,0.19371822476387024,41.748046875,-90.51513671875,-1.28173828125
2.950019000000001,0.8954314589500427,8.118738174438477,-9.133879661560059,-0.9522705078125,-0.3638916015625,-0.3333740234375,0.7269096374511719,-6.290912628173828,0.171335369348526,43.9453125,-102.47802734375,-3.23486328125
2.960011999999999,1.1635819673538208,8.31985092163086,-7.936778545379639,-0.9454345703125,-0.373046875,-0.2835693359375,1.0447993278503418,-6.865938663482666,0.1366952508687973,46.08154296875,-111.14501953125,-5.615234375
2.9700200000000017,1.2617442607879639,8.398859977722168,-6.471527099609375,-0.924560546875,-0.369873046875,-0.24267578125,1.3216538429260254,-7.333580017089844,0.11084839701652527,50.47607421875,-118.408203125,-7.38525390625
2.980019000000002,1.0031704902648926,8.17141056060791,-4.920084476470947,-0.881591796875,-0.3726806640625,-0.1749267578125,1.5348238945007324,-7.596579074859619,0.11937519162893295,55.60302734375,-124.45068359375,-8.72802734375
2.990019,0.8595184087753296,7.898471355438232,-3.622427225112915,-0.8603515625,-0.3387451171875,-0.205810546875,1.676315426826477,-7.684777736663818,0.14548850059509277,59.5703125,-127.86865234375,-10.25390625
3.0000190000000018,1.0295066833496094,7.891288757324219,-2.169146776199341,-0.86865234375,-0.30224609375,-0.2122802734375,1.7607841491699219,-7.610967636108398,0.19505053758621216,60.4248046875,-129.69970703125,-11.23046875
3.010020000000001,1.1875240802764893,7.8314337730407715,-1.072602391242981,-0.877685546875,-0.3140869140625,-0.170654296875,1.747194528579712,-7.322389125823975,0.26459723711013794,59.50927734375,-131.103515625,-12.3291015625
3.0200200000000024,1.3694833517074585,7.836222171783447,-0.6033388376235962,-0.875732421875,-0.312744140625,-0.1466064453125,1.6981652975082397,-6.959733486175537,0.3130933940410614,59.26513671875,-131.2255859375,-13.427734375
3.0300189999999994,1.5538369417190552,8.142680168151855,-0.545877993106842,-0.85986328125,-0.30615234375,-0.1363525390625,1.6259541511535645,-6.6183953285217285,0.3149586319923401,58.4716796875,-129.638671875,-13.5498046875
3.040020000000002,1.6136919260025024,8.69334602355957,-0.5410895943641663,-0.8160400390625,-0.28759765625,-0.10791015625,1.5470811128616333,-6.328750133514404,0.3128269612789154,56.94580078125,-126.03759765625,-13.916015625
3.05002,1.920149803161621,9.100360870361328,-0.38546648621559143,-0.7724609375,-0.291259765625,-0.0814208984375,1.475935697555542,-6.120110511779785,0.36292192339897156,54.38232421875,-121.15478515625,-14.70947265625
3.0600190000000005,2.3942017555236816,9.014169692993164,0.1867477297782898,-0.751220703125,-0.2969970703125,-0.0712890625,1.4471577405929565,-5.982349395751953,0.5046799182891846,50.47607421875,-113.70849609375,-15.7470703125
3.070019000000002,2.3487119674682617,8.65982723236084,1.3910311460494995,-0.7698974609375,-0.3204345703125,-0.0108642578125,1.457549810409546,-5.811546802520752,0.6802787184715271,45.83740234375,-103.6376953125,-16.4794921875
3.080019,2.185906171798706,8.29830265045166,2.030282974243164,-0.8101806640625,-0.3262939453125,-0.0050048828125,1.4999173879623413,-5.543219089508057,0.7586186528205872,42.724609375,-92.10205078125,-15.13671875
3.090019999999999,2.315192937850952,8.47786808013916,2.0853497982025146,-0.850341796875,-0.322021484375,-0.0245361328125,1.52203369140625,-5.275957107543945,0.8095130324363708,39.48974609375,-83.06884765625,-13.24462890625
3.1000189999999996,2.1811177730560303,9.196128845214844,1.1683704853057861,-0.864990234375,-0.3251953125,-0.007568359375,1.5020489692687988,-5.202147006988525,0.8297641277313232,36.865234375,-77.2705078125,-12.02392578125
3.110019000000001,2.2816741466522217,9.81143856048584,0.5363011956214905,-0.866943359375,-0.314208984375,0.0079345703125,1.4801989793777466,-5.354297161102295,0.7924593687057495,34.66796875,-74.21875,-12.75634765625
3.1200200000000002,2.011129379272461,9.770736694335938,0.9576807022094727,-0.8526611328125,-0.3583984375,0.0806884765625,1.4250413179397583,-5.469141960144043,0.7119877338409424,31.67724609375,-74.27978515625,-14.6484375
3.1300190000000008,1.3335703611373901,9.181763648986816,2.300827741622925,-0.8109130859375,-0.358642578125,0.1141357421875,1.292343020439148,-5.339108467102051,0.6288514137268066,29.9072265625,-76.2939453125,-16.7236328125
3.1400190000000023,1.039083480834961,8.822632789611816,3.821146011352539,-0.7969970703125,-0.36083984375,0.1241455078125,1.0498621463775635,-4.798722743988037,0.6043369174003601,26.611328125,-75.50048828125,-18.06640625
3.1500190000000003,1.2186486721038818,8.554482460021973,4.7620673179626465,-0.8140869140625,-0.335693359375,0.083740234375,0.7146523594856262,-3.8911516666412354,0.6152618527412415,22.8271484375,-69.4580078125,-18.5546875
3.160019000000002,1.7597382068634033,8.937555313110352,5.0876784324646,-0.7794189453125,-0.32080078125,0.0745849609375,0.3487994074821472,-2.847684621810913,0.6051363348960876,18.798828125,-59.99755859375,-16.6015625
3.170020000000001,2.3271639347076416,9.6989107131958,4.395754337310791,-0.7362060546875,-0.291015625,0.0625,0.027712099254131317,-1.8705666065216064,0.5331913828849792,13.916015625,-49.6826171875,-13.3056640625
3.1800190000000015,3.0813376903533936,10.714052200317383,2.741360902786255,-0.7572021484375,-0.3045654296875,0.0684814453125,-0.14202450215816498,-1.2571699619293213,0.45218685269355774,7.8125,-40.771484375,-10.80322265625
3.190011000000002,4.050989151000977,10.910377502441406,1.8291701078414917,-0.7872314453125,-0.3319091796875,0.0660400390625,-0.13376416265964508,-1.1060857772827148,0.3344103991985321,1.8310546875,-34.60693359375,-10.19287109375
3.200020000000002,4.881777286529541,10.488997459411621,1.4867992401123047,-0.808837890625,-0.35302734375,0.0836181640625,0.007194486912339926,-1.1982817649841309,0.16334150731563568,-2.50244140625,-30.82275390625,-11.29150390625
3.21002,4.9583916664123535,10.08198356628418,1.0869675874710083,-0.8052978515625,-0.366943359375,0.1114501953125,0.19345174729824066,-1.4007933139801025,-0.014655436389148235,-2.50244140625,-30.82275390625,-11.29150390625
3.2200279999999992,3.847482204437256,9.48343276977539,1.1061211824417114,-0.815673828125,-0.385498046875,0.1375732421875,0.2749892771244049,-1.5049799680709839,-0.09859111160039902,-5.67626953125,-23.86474609375,-12.3291015625
3.230019000000002,3.4763808250427246,8.947132110595703,1.4987702369689941,-0.8311767578125,-0.386474609375,0.138671875,0.18545790016651154,-1.4772679805755615,-0.04156814515590668,-5.67626953125,-23.86474609375,-12.3291015625
3.239991,3.8139634132385254,9.131484985351562,1.920149803161621,-0.8319091796875,-0.3931884765625,0.1558837890625,-0.0010658499086275697,-1.2755558490753174,0.042900457978248596,-3.0517578125,-23.92578125,-14.09912109375
3.2500110000000006,4.252102375030518,9.646238327026367,2.3104045391082764,-0.81103515625,-0.3792724609375,0.15185546875,-0.14708729088306427,-1.0661163330078125,0.06315161287784576,-3.0517578125,-23.92578125,-14.09912109375
3.260020000000001,4.879383087158203,10.06043529510498,3.1220390796661377,-0.7967529296875,-0.366943359375,0.1282958984375,-0.18732312321662903,-0.912634015083313,0.015721285715699196,-8.23974609375,-22.705078125,-13.3056640625
3.2700190000000013,5.228936672210693,10.237606048583984,3.9049429893493652,-0.786865234375,-0.3780517578125,0.1192626953125,-0.12044104188680649,-0.783932626247406,-0.07620827108621597,-10.498046875,-19.53125,-13.7939453125
3.2800200000000004,4.9368438720703125,9.904812812805176,4.632780075073242,-0.7860107421875,-0.406494140625,0.1441650390625,0.013589587062597275,-0.6488361358642578,-0.1961163729429245,-11.41357421875,-15.80810546875,-13.7939453125
3.290019000000001,4.491522312164307,9.313444137573242,5.054159641265869,-0.793212890625,-0.42724609375,0.1524658203125,0.1827932745218277,-0.5038805603981018,-0.25473812222480774,-10.80322265625,-11.71875,-13.00048828125
3.300018999999999,3.950432777404785,8.81784439086914,4.886565685272217,-0.830078125,-0.4462890625,0.1636962890625,0.3258835971355438,-0.33147934079170227,-0.2192986160516739,-8.9111328125,-8.11767578125,-11.5966796875
3.310017000000002,3.6511576175689697,8.552088737487793,4.3622355461120605,-0.856689453125,-0.466552734375,0.19140625,0.3757120966911316,-0.12790198624134064,-0.09486064314842224,-6.4697265625,-5.2490234375,-10.009765625
3.320019000000002,3.885789394378662,8.609549522399902,3.3423056602478027,-0.856689453125,-0.466552734375,0.19140625,0.3413384258747101,0.030376723036170006,0.0460980087518692,-6.4697265625,-5.2490234375,-10.009765625
3.330000000000002,4.41969633102417,9.11233139038086,2.2673089504241943,-0.911376953125,-0.4425048828125,0.183837890625,0.22942420840263367,0.09352833032608032,0.11218070238828659,-4.21142578125,-1.28173828125,-5.67626953125
3.3400190000000016,4.843470096588135,9.615114212036133,1.5945383310317993,-0.911376953125,-0.4425048828125,0.183837890625,0.10152220726013184,0.01012557465583086,0.09672587364912033,-4.21142578125,-1.28173828125,-5.67626953125
3.3500000000000014,5.056553840637207,9.921571731567383,1.4508862495422363,-0.892333984375,-0.4278564453125,0.1781005859375,0.03224195912480354,-0.1777304857969284,0.06768146902322769,-3.96728515625,-4.45556640625,-3.35693359375
3.3600200000000022,5.216965675354004,9.995792388916016,1.9033904075622559,-0.892333984375,-0.4278564453125,0.1781005859375,0.024248085916042328,-0.391966313123703,0.03570597246289253,-3.5400390625,-6.89697265625,-3.84521484375
3.370028999999999,5.2049946784973145,9.895236015319824,2.585737943649292,-0.84912109375,-0.42236328125,0.16796875,0.039436448365449905,-0.5425176024436951,0.0018652373692020774,-2.50244140625,-8.4228515625,-4.638671875
3.3800190000000008,5.2049946784973145,9.945513725280762,3.3925838470458984,-0.84912109375,-0.42236328125,0.16796875,0.06714854389429092,-0.5806217193603516,-0.03330780938267708,-2.13623046875,-8.4228515625,-4.638671875
3.390028000000001,5.236119270324707,9.873687744140625,4.077325344085693,-0.8369140625,-0.4405517578125,0.1966552734375,0.09645941853523254,-0.5113415122032166,-0.08366922289133072,-2.197265625,-7.99560546875,-4.21142578125
3.4000190000000003,4.836287498474121,9.643844604492188,4.49870491027832,-0.8115234375,-0.435302734375,0.1953125,0.12470444291830063,-0.3456018269062042,-0.12896783649921417,-1.64794921875,-7.01904296875,-3.2958984375
3.4100199999999994,4.750096321105957,9.476250648498535,4.73573112487793,-0.819580078125,-0.4285888671875,0.184326171875,0.17666462063789368,-0.15774579346179962,-0.10658498853445053,-1.708984375,-5.55419921875,-2.86865234375
3.420019,5.197812080383301,9.708487510681152,4.618414878845215,-0.8365478515625,-0.421630859375,0.178955078125,0.24168147146701813,0.03490658476948738,-0.08606737852096558,-2.01416015625,-3.11279296875,-2.99072265625
3.4300190000000015,5.784391403198242,10.196905136108398,4.036623954772949,-0.849365234375,-0.4224853515625,0.1883544921875,0.2880459427833557,0.1958499252796173,-0.1366952508687973,-2.5634765625,-0.48828125,-2.3193359375
3.4400200000000005,5.884947776794434,10.417171478271484,3.050212860107422,-0.856689453125,-0.4403076171875,0.204833984375,0.2952404320240021,0.27578866481781006,-0.24994181096553802,-2.685546875,0.91552734375,-0.79345703125
3.450019000000001,5.722142219543457,10.079588890075684,2.1356279850006104,-0.8656005859375,-0.4423828125,0.2052001953125,0.27285757660865784,0.22169679403305054,-0.33014702796936035,-2.0751953125,2.5634765625,0.732421875
3.4600110000000015,5.219359874725342,9.619902610778809,1.623268723487854,-0.864501953125,-0.442626953125,0.2333984375,0.24567840993404388,0.06128636747598648,-0.3277488350868225,-0.732421875,3.662109375,1.40380859375
3.4700190000000006,4.575319290161133,9.260771751403809,1.5155296325683594,-0.859375,-0.43212890625,0.232666015625,0.20837366580963135,-0.1318989247083664,-0.24994181096553802,0.79345703125,2.13623046875,1.220703125
3.480019000000002,4.58968448638916,9.306262016296387,1.9033904075622559,-0.8614501953125,-0.429931640625,0.2294921875,0.16360795497894287,-0.2853813171386719,-0.13296477496623993,2.25830078125,-0.67138671875,0.42724609375
3.4900200000000012,4.802768707275391,9.732429504394531,2.5043349266052246,-0.8382568359375,-0.4180908203125,0.2122802734375,0.10685145854949951,-0.3144257068634033,-0.05835527926683426,2.86865234375,-3.41796875,-0.1220703125
3.5000169999999997,5.130774021148682,10.132261276245117,2.9927520751953125,-0.82958984375,-0.4051513671875,0.195556640625,0.06075344607234001,-0.2488759458065033,-0.050361406058073044,1.8310546875,-4.5166015625,-0.244140625
3.510019,5.1810526847839355,10.247182846069336,3.2968156337738037,-0.8145751953125,-0.41162109375,0.2066650390625,0.042900457978248596,-0.14069218933582306,-0.09006431698799133,0.732421875,-4.150390625,-0.30517578125
3.520019999999999,4.960785865783691,10.038887977600098,3.2178070545196533,-0.8140869140625,-0.4134521484375,0.20556640625,0.05249311029911041,-0.03703828155994415,-0.1119142398238182,-0.18310546875,-3.47900390625,-0.30517578125
3.5300200000000004,4.714183330535889,9.744400978088379,2.7676970958709717,-0.8341064453125,-0.4256591796875,0.224853515625,0.06475038081407547,0.029044410213828087,-0.06768146902322769,-0.6103515625,-1.89208984375,-0.18310546875
3.540019000000001,4.410119533538818,9.512163162231445,2.250549554824829,-0.8408203125,-0.41845703125,0.2147216796875,0.045032158493995667,0.057555895298719406,0.019718224182724953,-0.3662109375,-0.42724609375,0.3662109375
3.550018999999999,4.5394062995910645,9.519346237182617,1.7764976024627686,-0.8614501953125,-0.4127197265625,0.2110595703125,-0.006661561783403158,0.019185297191143036,0.11591117829084396,0.1220703125,0.8544921875,0.91552734375
3.5600200000000015,4.817133903503418,9.612719535827637,1.7956513166427612,-0.8602294921875,-0.4041748046875,0.1895751953125,-0.0823369100689888,-0.06768146902322769,0.19718222320079803,0.54931640625,0.30517578125,0.67138671875
3.570011000000001,5.2265424728393555,9.911994934082031,2.011129379272461,-0.86376953125,-0.40576171875,0.1790771484375,-0.12923429906368256,-0.14868606626987457,0.23928330838680267,0.1220703125,-2.197265625,-0.244140625
3.580019,5.530605792999268,10.508151054382324,2.346317768096924,-0.8458251953125,-0.4156494140625,0.1878662109375,-0.12976722419261932,-0.2566033899784088,0.21210414171218872,-0.18310546875,-4.7607421875,-1.15966796875
3.590019999999999,5.743690013885498,10.66137981414795,2.6862943172454834,-0.84716796875,-0.40576171875,0.164794921875,-0.10471975803375244,-0.3293476402759552,0.13083307445049286,-0.67138671875,-6.591796875,-1.89208984375
3.6000200000000007,6.004657745361328,10.668562889099121,2.8634653091430664,-0.86181640625,-0.4156494140625,0.177978515625,-0.09033077955245972,-0.35173046588897705,0.02717917412519455,-1.40380859375,-7.75146484375,-2.86865234375
3.610019000000001,5.980715751647949,10.553641319274902,2.9759926795959473,-0.8333740234375,-0.4205322265625,0.1834716796875,-0.10312097519636154,-0.3282817602157593,-0.0724777951836586,-1.708984375,-8.72802734375,-3.35693359375
3.620018999999999,5.633556365966797,10.180145263671875,3.138798475265503,-0.8287353515625,-0.4293212890625,0.2066650390625,-0.11084839701652527,-0.28964468836784363,-0.13696171343326569,-1.8310546875,-7.8125,-2.44140625
3.6300190000000008,4.862623691558838,9.646238327026367,3.2609026432037354,-0.836669921875,-0.4454345703125,0.22802734375,-0.12310566753149033,-0.22489432990550995,-0.1516171544790268,-1.3427734375,-5.31005859375,-1.28173828125
3.6400190000000023,4.577713489532471,9.131484985351562,3.205836057662964,-0.843994140625,-0.443359375,0.2022705078125,-0.14735375344753265,-0.15694640576839447,-0.07700765877962112,-0.54931640625,-3.662109375,-0.91552734375
3.6500200000000014,5.2672438621521,9.500192642211914,3.1866824626922607,-0.8651123046875,-0.4425048828125,0.1917724609375,-0.17053598165512085,-0.11750995367765427,0.010924961417913437,0.54931640625,-3.35693359375,-1.46484375
3.660019000000002,5.726930618286133,10.158597946166992,3.248931646347046,-0.8470458984375,-0.4390869140625,0.1912841796875,-0.20011331140995026,-0.05489126965403557,-0.01012557465583086,1.3427734375,-4.08935546875,-1.03759765625
3.670019,5.841852188110352,10.261548042297363,3.114856481552124,-0.8385009765625,-0.4276123046875,0.178466796875,-0.2139693647623062,-0.014122511260211468,-0.07993873953819275,1.15966796875,-3.41796875,0.18310546875
3.680019999999999,5.762843608856201,10.11789608001709,2.8634653091430664,-0.832275390625,-0.43359375,0.19189453125,-0.18012863397598267,-0.04103522002696991,-0.12577028572559357,0.732421875,-1.64794921875,0.9765625
3.6900189999999995,5.65031623840332,9.971850395202637,2.580949544906616,-0.8310546875,-0.422119140625,0.1837158203125,-0.13696171343326569,-0.11244716495275497,-0.1398928016424179,0.79345703125,-0.732421875,0.8544921875
3.700019000000001,5.789179801940918,9.976638793945312,2.451662540435791,-0.8409423828125,-0.4237060546875,0.18994140625,-0.12896783649921417,-0.1859908103942871,-0.14602144062519073,0.6103515625,-0.732421875,0.0
3.710018999999999,5.578489780426025,9.964667320251465,2.4803929328918457,-0.8311767578125,-0.4293212890625,0.1995849609375,-0.13376416265964508,-0.23635222017765045,-0.16360795497894287,1.0986328125,-1.708984375,-0.67138671875
3.7200190000000006,5.310339450836182,9.81143856048584,2.7078421115875244,-0.8250732421875,-0.4239501953125,0.197265625,-0.1137794777750969,-0.273656964302063,-0.15907810628414154,1.52587890625,-2.50244140625,-0.79345703125
3.730019000000002,5.305551052093506,9.706093788146973,2.832340717315674,-0.826904296875,-0.42236328125,0.2005615234375,-0.0839356780052185,-0.27951914072036743,-0.11431240290403366,1.89208984375,-2.25830078125,-0.8544921875
3.740019,5.413290023803711,9.62947940826416,2.6024973392486572,-0.8333740234375,-0.4144287109375,0.1903076171875,-0.07993873953819275,-0.25980091094970703,-0.044232770800590515,2.3193359375,-2.3193359375,-1.52587890625
3.7500190000000018,5.827486991882324,9.75637149810791,2.2218191623687744,-0.8670654296875,-0.40283203125,0.1710205078125,-0.0823369100689888,-0.29097700119018555,0.011990811675786972,1.8310546875,-2.8076171875,-2.3193359375
3.760020000000001,6.129156112670898,10.110713958740234,2.1595699787139893,-0.861328125,-0.41845703125,0.188720703125,-0.10578560084104538,-0.35519447922706604,0.0,0.79345703125,-3.90625,-2.62451171875
3.7700190000000013,5.853823184967041,10.165780067443848,2.363077163696289,-0.8331298828125,-0.4168701171875,0.1875,-0.13616232573986053,-0.42101070284843445,-0.04183461144566536,0.1220703125,-4.45556640625,-2.25830078125
3.7800189999999994,5.497087001800537,9.895236015319824,2.762908697128296,-0.8316650390625,-0.4158935546875,0.187255859375,-0.1300336867570877,-0.4846952557563782,-0.06075344607234001,-0.06103515625,-3.7841796875,-1.8310546875
3.790019000000001,5.140350818634033,9.639056205749512,3.1699230670928955,-0.8414306640625,-0.42041015625,0.200927734375,-0.10418683290481567,-0.5100091695785522,-0.04316692054271698,0.3662109375,-3.41796875,-2.62451171875
3.800018999999999,5.224148273468018,9.701305389404297,3.4404678344726562,-0.8525390625,-0.4151611328125,0.18359375,-0.08580091595649719,-0.48203063011169434,-0.015454824082553387,0.18310546875,-4.82177734375,-3.96728515625
3.8100200000000015,5.501875400543213,9.995792388916016,3.7708675861358643,-0.8358154296875,-0.4163818359375,0.1920166015625,-0.08260336518287659,-0.39969369769096375,-0.015454824082553387,0.0,-6.103515625,-4.0283203125
3.820019000000002,5.5114521980285645,10.14902114868164,4.000710964202881,-0.8182373046875,-0.4068603515625,0.1878662109375,-0.08313629031181335,-0.25420519709587097,-0.033840734511613846,-0.30517578125,-5.67626953125,-2.8076171875
3.830019,5.571307182312012,10.235212326049805,3.5721490383148193,-0.83056640625,-0.4129638671875,0.192138671875,-0.04316692054271698,-0.1382940262556076,-0.038104135543107986,-1.28173828125,-3.47900390625,-1.708984375
3.840019999999999,5.796362400054932,9.955090522766113,2.9951462745666504,-0.8380126953125,-0.4117431640625,0.1934814453125,0.03677182272076607,-0.15374885499477386,-0.009592648595571518,-2.0751953125,-1.3427734375,-1.46484375
3.8500189999999996,5.882553577423096,9.746794700622559,2.4229321479797363,-0.8485107421875,-0.410400390625,0.2025146484375,0.08846554160118103,-0.2275589555501938,0.06634915620088577,-2.38037109375,0.18310546875,-1.220703125
3.860019000000001,5.386953830718994,9.545681953430176,2.123656988143921,-0.85791015625,-0.4169921875,0.2177734375,0.09752526879310608,-0.3309463858604431,0.17559877038002014,-1.77001953125,0.8544921875,-0.6103515625
3.870018999999999,5.2696380615234375,9.612719535827637,2.3774423599243164,-0.8597412109375,-0.4141845703125,0.204833984375,0.08313629031181335,-0.4247412085533142,0.27605512738227844,-0.9765625,0.48828125,-0.30517578125
3.8800190000000008,5.78678560256958,9.81143856048584,2.853888511657715,-0.8572998046875,-0.4063720703125,0.1925048828125,0.07940581440925598,-0.47536906599998474,0.36292192339897156,-0.54931640625,-0.54931640625,-0.6103515625
3.89002,6.09324312210083,10.177751541137695,3.134010076522827,-0.845703125,-0.4093017578125,0.194580078125,0.0889984667301178,-0.47217148542404175,0.4138162136077881,-0.3662109375,-2.0751953125,-0.91552734375
3.9000190000000003,6.4164605140686035,10.618284225463867,3.1938650608062744,-0.850341796875,-0.400634765625,0.1832275390625,0.11218070238828659,-0.47190505266189575,0.3842388689517975,-0.8544921875,-3.23486328125,-1.3427734375
3.9100199999999994,6.7277069091796875,10.764330863952637,3.1962592601776123,-0.8603515625,-0.4114990234375,0.186767578125,0.14948543906211853,-0.48496168851852417,0.3242848217487335,-1.64794921875,-4.0283203125,-1.89208984375
3.920020000000001,6.174646377563477,10.326191902160645,3.2321722507476807,-0.842529296875,-0.4176025390625,0.20068359375,0.15694640576839447,-0.4500551223754883,0.300303190946579,-1.8310546875,-4.7607421875,-2.197265625
3.9300190000000015,5.7125654220581055,10.000580787658691,3.0119056701660156,-0.8446044921875,-0.4051513671875,0.1844482421875,0.11644410341978073,-0.3951638638973236,0.2835160791873932,-1.64794921875,-4.8828125,-2.197265625
3.9400189999999995,5.858611583709717,10.098742485046387,3.023876667022705,-0.8607177734375,-0.4132080078125,0.1807861328125,0.08420214802026749,-0.3975619971752167,0.24354670941829681,-1.77001953125,-4.39453125,-2.38037109375
3.950019000000001,6.110002517700195,10.398017883300781,3.2752678394317627,-0.8565673828125,-0.42138671875,0.1773681640625,0.08766615390777588,-0.44046247005462646,0.18838897347450256,-1.708984375,-4.150390625,-2.3193359375
3.96002,6.2392897605896,10.35252857208252,3.2824504375457764,-0.850830078125,-0.4248046875,0.19189453125,0.09432771801948547,-0.42873814702033997,0.11750995367765427,-1.708984375,-4.08935546875,-1.40380859375
3.9700200000000017,6.385335922241211,10.362105369567871,3.028665065765381,-0.853271484375,-0.4232177734375,0.2020263671875,0.08793261647224426,-0.43060335516929626,0.09752526879310608,-1.52587890625,-4.150390625,-0.6103515625
3.9800199999999997,6.042964935302734,10.204087257385254,2.9879636764526367,-0.8658447265625,-0.4249267578125,0.2041015625,0.11004900932312012,-0.4790995419025421,0.10418683290481567,-1.40380859375,-3.84521484375,-0.42724609375
3.9900200000000012,5.57370138168335,10.022128105163574,3.1052796840667725,-0.8486328125,-0.421142578125,0.2041015625,0.0839356780052185,-0.4796324670314789,0.0937947928905487,-1.0986328125,-3.60107421875,-0.3662109375
4.000021,5.544970989227295,10.232817649841309,3.2776620388031006,-0.8460693359375,-0.40576171875,0.1956787109375,0.014655436389148235,-0.3477335274219513,0.054624807089567184,-0.8544921875,-3.96728515625,-0.732421875
4.010019,6.653486728668213,10.656591415405273,3.3255462646484375,-0.8553466796875,-0.4141845703125,0.191650390625,-0.016254210844635963,-0.22196324169635773,-0.007194486912339926,-1.40380859375,-3.90625,-1.15966796875
4.020019000000001,6.773196697235107,10.582371711730957,3.339911460876465,-0.8544921875,-0.4256591796875,0.2000732421875,0.05009494721889496,-0.22302909195423126,0.0010658499086275697,-1.953125,-3.84521484375,-1.40380859375
4.030017000000001,6.22731876373291,10.345345497131348,3.141192674636841,-0.8411865234375,-0.42138671875,0.18994140625,0.12976722419261932,-0.2568698227405548,0.00506278732791543,-1.708984375,-3.96728515625,-1.0986328125
4.040019000000001,5.293580055236816,10.110713958740234,3.0310592651367188,-0.8310546875,-0.4119873046875,0.1866455078125,0.08340275287628174,-0.18172740936279297,-0.012257273308932781,-1.40380859375,-4.08935546875,-1.3427734375
4.05002,5.571307182312012,10.105925559997559,2.8347349166870117,-0.82568359375,-0.413330078125,0.1904296875,-0.017852986231446266,-0.05355895683169365,-0.05728943273425102,-1.40380859375,-4.08935546875,-1.3427734375
4.060027999999999,6.045359134674072,10.019734382629395,2.9927520751953125,-0.825927734375,-0.4117431640625,0.1898193359375,-0.030376723036170006,-0.0378376729786396,-0.04796324670314789,-1.64794921875,-2.3193359375,-1.5869140625
4.070011000000001,6.399701118469238,10.29746150970459,3.227383852005005,-0.829345703125,-0.409912109375,0.1834716796875,0.02931087277829647,-0.06395099312067032,-0.03890352323651314,-1.64794921875,-2.3193359375,-1.5869140625
4.080029,6.011840343475342,10.38844108581543,3.3710360527038574,-0.8260498046875,-0.4168701171875,0.1861572265625,0.047696780413389206,0.021849922835826874,-0.04796324670314789,-4.2724609375,-1.15966796875,-2.44140625
4.090019000000002,5.853823184967041,10.350133895874023,3.248931646347046,-0.824462890625,-0.419677734375,0.1724853515625,0.013056661002337933,0.15215006470680237,-0.08446860313415527,-4.2724609375,-1.15966796875,-2.44140625
4.100028000000002,6.030993938446045,10.218452453613281,3.1459810733795166,-0.8114013671875,-0.4146728515625,0.172607421875,-0.00559571199119091,0.2470107227563858,-0.09246248006820679,-6.53076171875,0.6103515625,-2.8076171875
4.110019000000001,6.1985883712768555,10.309432983398438,3.112462282180786,-0.8079833984375,-0.4000244140625,0.168701171875,-0.00559571199119091,0.32028788328170776,-0.11457886546850204,-6.53076171875,0.6103515625,-2.8076171875
4.120028000000001,6.339846134185791,10.493785858154297,3.047818660736084,-0.8157958984375,-0.4031982421875,0.1644287109375,-0.009859112091362476,0.37944257259368896,-0.13616232573986053,-8.85009765625,3.2958984375,-4.57763671875
4.130020000000002,6.1315507888793945,10.484209060668945,2.8179752826690674,-0.82861328125,-0.41064453125,0.161865234375,0.0005329249543137848,0.4135497510433197,-0.15854516625404358,-9.58251953125,3.662109375,-5.18798828125
4.140019000000002,6.076483726501465,10.376470565795898,2.6455929279327393,-0.8245849609375,-0.4208984375,0.168701171875,0.0023981621488928795,0.4186125695705414,-0.17852985858917236,-9.8876953125,3.84521484375,-5.2490234375
4.150019,6.011840343475342,10.38604736328125,2.8155810832977295,-0.8212890625,-0.4073486328125,0.16845703125,-0.0023981621488928795,0.40289124846458435,-0.18332618474960327,-10.55908203125,3.90625,-5.7373046875
4.160019999999999,6.090848922729492,10.407594680786133,3.045424461364746,-0.8212890625,-0.4073486328125,0.16845703125,0.00799387414008379,0.4441929757595062,-0.20037978887557983,-10.55908203125,3.90625,-5.7373046875
4.169991,5.928043365478516,10.381258964538574,3.1699230670928955,-0.831298828125,-0.411865234375,0.169677734375,0.029843797907233238,0.5009494423866272,-0.21476876735687256,-12.51220703125,5.615234375,-6.16455078125
4.1800180000000005,5.7987565994262695,10.309432983398438,3.2178070545196533,-0.831298828125,-0.411865234375,0.169677734375,0.03144257143139839,0.5779570937156677,-0.2387503832578659,-12.51220703125,5.615234375,-6.16455078125
4.189997999999999,5.746084213256836,10.407594680786133,3.1100680828094482,-0.8284912109375,-0.4129638671875,0.1556396484375,0.006928024813532829,0.6792128682136536,-0.253938764333725,-13.97705078125,7.50732421875,-6.28662109375
4.200020000000002,5.69580602645874,10.551246643066406,3.1459810733795166,-0.8284912109375,-0.4129638671875,0.1556396484375,-0.00799387414008379,0.7410321831703186,-0.2715252637863159,-14.95361328125,8.7890625,-5.79833984375
4.210029000000002,5.791574001312256,10.656591415405273,3.268085241317749,-0.8355712890625,-0.41162109375,0.149658203125,-0.012257273308932781,0.7879295349121094,-0.27925267815589905,-15.19775390625,10.6201171875,-5.43212890625
4.220019000000001,5.501875400543213,10.60152530670166,3.1220390796661377,-0.8355712890625,-0.41162109375,0.149658203125,-0.006928024813532829,0.7951239943504333,-0.28911179304122925,-15.07568359375,11.8408203125,-5.37109375
4.230028000000001,5.643133640289307,10.517727851867676,3.0813376903533936,-0.85009765625,-0.41650390625,0.143310546875,-0.012257273308932781,0.7692771553993225,-0.300036758184433,-14.95361328125,12.451171875,-5.7373046875
4.240020000000001,5.856217384338379,10.498574256896973,3.0550012588500977,-0.8568115234375,-0.411376953125,0.132568359375,-0.04103522002696991,0.7740735411643982,-0.3061653971672058,-15.07568359375,12.6953125,-5.9814453125
4.250019000000002,5.791574001312256,10.63504409790039,3.1483752727508545,-0.853515625,-0.414794921875,0.143798828125,-0.06501684337854385,0.8156417012214661,-0.31682389974594116,-15.68603515625,12.87841796875,-6.04248046875
4.260019,5.592854976654053,10.565611839294434,3.1675288677215576,-0.8433837890625,-0.4249267578125,0.1510009765625,-0.06528330594301224,0.8534793257713318,-0.30083614587783813,-15.5029296875,12.87841796875,-6.103515625
4.270019000000001,5.468356609344482,10.532093048095703,2.8419175148010254,-0.8480224609375,-0.4267578125,0.1507568359375,-0.04130168259143829,0.8494824171066284,-0.28724655508995056,-14.70947265625,13.12255859375,-6.103515625
4.28002,5.336675643920898,10.474632263183594,2.4588451385498047,-0.8521728515625,-0.4295654296875,0.1458740234375,-0.009859112091362476,0.7695436477661133,-0.2819173038005829,-13.48876953125,12.75634765625,-6.53076171875
4.290011,5.2696380615234375,10.357316970825195,2.276885747909546,-0.8521728515625,-0.4295654296875,0.143798828125,0.018385911360383034,0.6219233870506287,-0.2648636996746063,-12.14599609375,11.41357421875,-7.2021484375
4.30002,5.298368453979492,10.402806282043457,2.4875755310058594,-0.8436279296875,-0.427734375,0.13916015625,0.04369984567165375,0.4625788629055023,-0.24674426019191742,-11.04736328125,9.765625,-7.50732421875
4.3100190000000005,5.434837818145752,10.553641319274902,2.8993782997131348,-0.8392333984375,-0.4189453125,0.1170654296875,0.0626186802983284,0.37304747104644775,-0.2486094981431961,-9.765625,8.9111328125,-7.4462890625
4.320019000000002,5.518634796142578,10.711658477783203,3.2082302570343018,-0.8377685546875,-0.41943359375,0.1173095703125,0.07274425029754639,0.3890352249145508,-0.2390168458223343,-9.21630859375,8.6669921875,-7.75146484375
4.330019,5.475539207458496,10.809821128845215,3.49314022064209,-0.8251953125,-0.42822265625,0.1304931640625,0.0708790197968483,0.4668422341346741,-0.21716691553592682,-9.033203125,9.27734375,-7.568359375
4.340019000000002,5.341464042663574,10.788272857666016,3.485957622528076,-0.8330078125,-0.4305419921875,0.121826171875,0.048496171832084656,0.6363124251365662,-0.2142358273267746,-8.7890625,10.92529296875,-6.8359375
4.350019,5.015852451324463,10.60391902923584,3.2297780513763428,-0.8402099609375,-0.4295654296875,0.1124267578125,0.031709033995866776,0.7604838609695435,-0.23448698222637177,-8.97216796875,13.24462890625,-6.16455078125
4.360019000000001,4.891354084014893,10.56800651550293,3.1483752727508545,-0.831298828125,-0.4266357421875,0.1107177734375,0.014921898953616619,0.8553445339202881,-0.25633689761161804,-9.09423828125,15.44189453125,-5.4931640625
4.370018999999999,5.013458251953125,10.654197692871094,3.24414324760437,-0.8294677734375,-0.425048828125,0.106689453125,-0.01039203628897667,0.9645941257476807,-0.27259111404418945,-9.1552734375,17.76123046875,-4.57763671875
4.380019000000001,5.061342239379883,10.730812072753906,3.112462282180786,-0.8388671875,-0.424560546875,0.087646484375,-0.03703828155994415,1.0839693546295166,-0.2880459427833557,-9.33837890625,19.8974609375,-3.90625
4.390018999999999,5.003881454467773,10.66137981414795,2.7317841053009033,-0.853515625,-0.4283447265625,0.08203125,-0.04156814515590668,1.1042205095291138,-0.2699264883995056,-9.82666015625,20.81298828125,-4.21142578125
4.400020000000001,4.759673118591309,10.565611839294434,2.497152328491211,-0.85986328125,-0.43408203125,0.0909423828125,-0.012257273308932781,1.0106922388076782,-0.23848392069339752,-9.94873046875,20.08056640625,-5.0048828125
4.410019999999999,4.426878929138184,10.539276123046875,2.233790159225464,-0.858642578125,-0.43896484375,0.0889892578125,0.03277488425374031,0.8795926570892334,-0.2139693647623062,-9.6435546875,18.73779296875,-5.4931640625
4.420020000000001,4.352658748626709,10.503362655639648,2.1715409755706787,-0.86328125,-0.4412841796875,0.0841064453125,0.06768146902322769,0.7037274241447449,-0.20650841295719147,-9.521484375,17.2119140625,-6.16455078125
4.4300190000000015,4.479551315307617,10.462661743164062,2.451662540435791,-0.8638916015625,-0.4373779296875,0.0716552734375,0.07540887594223022,0.5955436825752258,-0.20304441452026367,-8.85009765625,15.625,-6.7138671875
4.4400189999999995,4.244919776916504,10.54406452178955,2.9041666984558105,-0.8525390625,-0.4451904296875,0.0704345703125,0.06554976850748062,0.5593047738075256,-0.20331087708473206,-8.7890625,14.5263671875,-6.89697265625
4.450020000000002,4.216189384460449,10.591948509216309,3.177105665206909,-0.8572998046875,-0.453125,0.0565185546875,0.06554976850748062,0.5521102547645569,-0.19904747605323792,-8.60595703125,13.61083984375,-7.080078125
4.460018999999999,4.197035789489746,10.60391902923584,3.380612850189209,-0.8604736328125,-0.4500732421875,0.053466796875,0.06981316953897476,0.5806217193603516,-0.20011331140995026,-8.60595703125,13.427734375,-7.26318359375
4.470020000000002,4.1874589920043945,10.682928085327148,3.406949043273926,-0.8642578125,-0.4508056640625,0.062744140625,0.06395099312067032,0.6576294302940369,-0.21210414171218872,-8.60595703125,13.3056640625,-6.77490234375
4.48002,4.153939723968506,10.649409294128418,3.1651346683502197,-0.87255859375,-0.44873046875,0.0533447265625,0.044232770800590515,0.7199816107749939,-0.21450228989124298,-8.85009765625,13.427734375,-5.92041015625
4.490019,4.2951979637146,10.690110206604004,2.868253707885742,-0.8822021484375,-0.4530029296875,0.0601806640625,0.025313934311270714,0.7479601502418518,-0.21796630322933197,-9.33837890625,13.5498046875,-5.2490234375
4.500019999999999,4.302380561828613,10.752359390258789,2.5713725090026855,-0.8863525390625,-0.4588623046875,0.0654296875,0.01678713597357273,0.74449622631073,-0.2043767273426056,-8.85009765625,13.427734375,-4.69970703125
4.510019,3.907337188720703,10.721235275268555,2.38462495803833,-0.8828125,-0.457275390625,0.0562744140625,0.024514546617865562,0.6578958630561829,-0.1878560483455658,-7.8125,12.02392578125,-4.45556640625
4.520019000000001,3.9025487899780273,10.63504409790039,2.5258827209472656,-0.8653564453125,-0.4583740234375,0.060791015625,0.01811944879591465,0.5734272599220276,-0.18838897347450256,-7.080078125,9.8876953125,-4.5166015625
4.53002,3.7708675861358643,10.56800651550293,2.6144683361053467,-0.8614501953125,-0.45263671875,0.0487060546875,0.0045298621989786625,0.5062786936759949,-0.1710689216852188,-5.79833984375,8.4228515625,-4.69970703125
4.540019000000001,3.732560396194458,10.63743782043457,2.7461493015289307,-0.8592529296875,-0.455078125,0.0438232421875,0.003996937070041895,0.44259417057037354,-0.16200919449329376,-5.55419921875,7.2021484375,-5.31005859375
4.550011000000001,3.9217023849487305,10.678139686584473,2.832340717315674,-0.857177734375,-0.453125,0.0426025390625,0.011724349111318588,0.40742114186286926,-0.14948543906211853,-5.37109375,6.28662109375,-5.92041015625
4.5600200000000015,3.861847400665283,10.788272857666016,2.985569477081299,-0.8466796875,-0.4434814453125,0.0369873046875,0.0026646247133612633,0.44206127524375916,-0.158012256026268,-5.31005859375,5.7373046875,-5.79833984375
4.5700199999999995,4.017470359802246,10.81700325012207,2.942473888397217,-0.8388671875,-0.4427490234375,0.03271484375,-0.02504747360944748,0.5220000147819519,-0.1497519165277481,-5.615234375,5.67626953125,-5.126953125
4.580019,3.907337188720703,10.764330863952637,2.762908697128296,-0.8414306640625,-0.4493408203125,0.02783203125,-0.03970290720462799,0.5635681748390198,-0.14602144062519073,-5.67626953125,6.16455078125,-4.5166015625
4.590019000000002,3.7684733867645264,10.702081680297852,2.607285737991333,-0.849365234375,-0.455078125,0.0279541015625,-0.0444992333650589,0.602205216884613,-0.1516171544790268,-5.67626953125,7.568359375,-4.08935546875
4.600019,3.711012601852417,10.656591415405273,2.2194249629974365,-0.85693359375,-0.4560546875,0.0230712890625,-0.039436448365449905,0.5529096722602844,-0.12497090548276901,-5.55419921875,8.72802734375,-4.0283203125
4.610020000000002,3.60566782951355,10.654197692871094,2.38462495803833,-0.8558349609375,-0.45947265625,0.0308837890625,-0.031709033995866776,0.4727044403553009,-0.11830934137105942,-5.126953125,8.6669921875,-4.21142578125
4.620018999999999,3.5649664402008057,10.639832496643066,2.389413356781006,-0.8531494140625,-0.458984375,0.028564453125,-0.03437365964055061,0.40928637981414795,-0.098857581615448,-4.57763671875,8.30078125,-3.84521484375
4.630019000000001,3.423708438873291,10.697293281555176,2.631227731704712,-0.859619140625,-0.459716796875,0.0172119140625,-0.026113322004675865,0.32508420944213867,-0.07301072031259537,-3.96728515625,7.87353515625,-3.60107421875
4.640021000000001,3.19865345954895,10.644620895385742,3.045424461364746,-0.8673095703125,-0.4664306640625,0.0205078125,-0.007727412041276693,0.2917764186859131,-0.055424198508262634,-3.11279296875,6.7138671875,-4.21142578125
4.650019,3.1962592601776123,10.656591415405273,2.911349296569824,-0.860595703125,-0.4642333984375,0.0205078125,-0.009592648595571518,0.32508420944213867,-0.04743032157421112,-2.13623046875,4.45556640625,-5.0048828125
4.660019999999999,3.4380736351013184,10.795455932617188,2.693476915359497,-0.8646240234375,-0.459716796875,0.00927734375,-0.03277488425374031,0.3674517571926117,-0.059687595814466476,-1.89208984375,2.3193359375,-5.7373046875
4.670019,3.4308910369873047,10.81460952758789,2.6839001178741455,-0.863037109375,-0.45068359375,0.0028076171875,-0.07034609466791153,0.4460581839084625,-0.08953139185905457,-2.44140625,1.03759765625,-5.55419921875
4.6800190000000015,3.4404678344726562,10.828974723815918,2.7054479122161865,-0.84033203125,-0.4439697265625,0.0054931640625,-0.10285452008247375,0.5454487204551697,-0.10658498853445053,-3.11279296875,0.79345703125,-5.06591796875
4.6900200000000005,3.2800562381744385,10.828974723815918,2.7030537128448486,-0.8331298828125,-0.4461669921875,0.00244140625,-0.11537826061248779,0.6293843984603882,-0.11004900932312012,-3.60107421875,2.38037109375,-4.0283203125
4.700019000000001,3.2609026432037354,10.831368446350098,2.734178304672241,-0.830322265625,-0.450927734375,-0.0032958984375,-0.1201745793223381,0.7090566754341125,-0.10018989443778992,-3.7841796875,4.69970703125,-3.41796875
4.710018999999999,3.4117374420166016,10.884040832519531,2.7485435009002686,-0.8343505859375,-0.4459228515625,-0.0084228515625,-0.12070750445127487,0.7863308191299438,-0.11937519162893295,-3.90625,7.2021484375,-3.173828125
4.720020000000002,3.1459810733795166,10.627861022949219,2.5761611461639404,-0.8353271484375,-0.4476318359375,-0.00146484375,-0.1284349113702774,0.8553445339202881,-0.13696171343326569,-3.90625,9.033203125,-2.8076171875
4.73002,2.8778305053710938,10.457873344421387,2.212242364883423,-0.84326171875,-0.4627685546875,0.0068359375,-0.13962633907794952,0.8326952457427979,-0.12390504777431488,-3.60107421875,10.009765625,-1.8310546875
4.740020000000001,2.7964274883270264,10.517727851867676,1.6615760326385498,-0.86083984375,-0.4739990234375,0.004150390625,-0.13376416265964508,0.7002634406089783,-0.09272895008325577,-2.74658203125,10.7421875,-1.46484375
4.750019000000002,2.8227639198303223,10.532093048095703,1.482010841369629,-0.87451171875,-0.4737548828125,0.003662109375,-0.12150689214468002,0.4942878782749176,-0.06155283376574516,-1.0986328125,9.58251953125,-1.8310546875
4.760019,2.8395233154296875,10.611102104187012,1.7381904125213623,-0.864501953125,-0.464599609375,0.005615234375,-0.1119142398238182,0.3245512843132019,-0.033041346818208694,0.30517578125,6.77490234375,-2.44140625
4.770019999999999,2.8562827110290527,10.716446876525879,2.1811177730560303,-0.8524169921875,-0.4539794921875,-0.0037841796875,-0.09912404417991638,0.24088208377361298,-0.010658498853445053,1.03759765625,4.0283203125,-3.173828125
4.780018999999999,3.002328872680664,10.83855152130127,2.719813108444214,-0.850830078125,-0.4461669921875,-0.01513671875,-0.0873996913433075,0.2619326114654541,-0.012257273308932781,0.67138671875,2.5634765625,-4.0283203125
4.790020000000002,2.985569477081299,10.900800704956055,3.0573954582214355,-0.8372802734375,-0.446044921875,-0.010498046875,-0.09406124800443649,0.4138162136077881,-0.03970290720462799,-0.30517578125,1.89208984375,-4.69970703125
4.800018999999999,2.8179752826690674,10.855310440063477,3.251325845718384,-0.8187255859375,-0.441162109375,-0.024169921875,-0.12150689214468002,0.6408422589302063,-0.08047167211771011,-1.3427734375,2.38037109375,-4.2724609375
4.8100190000000005,2.693476915359497,10.805032730102539,3.157952070236206,-0.8082275390625,-0.4407958984375,-0.0279541015625,-0.15188361704349518,0.8769280314445496,-0.11830934137105942,-2.74658203125,5.31005859375,-2.9296875
4.820019000000002,2.2194249629974365,10.572794914245605,1.5131354331970215,-0.8251953125,-0.4476318359375,-0.029052734375,-0.13722817599773407,0.7588851451873779,-0.12097396701574326,-3.173828125,9.58251953125,-1.46484375
4.830019,2.3750481605529785,10.362105369567871,2.1284453868865967,-0.843017578125,-0.4632568359375,-0.004150390625,-0.14362327754497528,0.9728545546531677,-0.11591117829084396,-2.99072265625,12.8173828125,-0.48828125
4.840019999999999,2.3750481605529785,10.398017883300781,1.4915876388549805,-0.8536376953125,-0.462646484375,-0.0272216796875,-0.17266768217086792,1.018419623374939,-0.10818377137184143,-1.3427734375,13.427734375,-0.67138671875
4.850020000000001,2.3104045391082764,10.484209060668945,1.161187767982483,-0.8857421875,-0.4681396484375,-0.0374755859375,-0.17719754576683044,0.8321623206138611,-0.09326186776161194,-0.91552734375,11.8408203125,-1.5869140625
4.860020000000002,2.4157495498657227,10.572794914245605,1.4197616577148438,-0.8878173828125,-0.4676513671875,-0.035888671875,-0.15401531755924225,0.6189923286437988,-0.06848085671663284,0.54931640625,8.9111328125,-1.89208984375
4.87002,2.454056739807129,10.644620895385742,1.7166426181793213,-0.86083984375,-0.4554443359375,-0.037353515625,-0.1303001493215561,0.47856661677360535,-0.049029093235731125,1.52587890625,6.34765625,-1.8310546875
4.880019000000001,2.3774423599243164,10.651803016662598,2.126051187515259,-0.84521484375,-0.45458984375,-0.0322265625,-0.12337213009595871,0.4463246464729309,-0.04663093388080597,0.732421875,4.8828125,-2.0751953125
4.890015999999999,2.2864625453948975,10.656591415405273,2.248155355453491,-0.840087890625,-0.4595947265625,-0.01953125,-0.12577028572559357,0.4039571285247803,-0.04743032157421112,0.732421875,4.8828125,-2.0751953125
4.900029,2.403778553009033,10.766724586486816,2.293645143508911,-0.8299560546875,-0.4486083984375,-0.0323486328125,-0.14708729088306427,0.5521102547645569,-0.06741500645875931,-0.1220703125,4.69970703125,-2.86865234375
4.910019000000002,2.5091233253479004,10.843339920043945,2.4205379486083984,-0.8282470703125,-0.429931640625,-0.056640625,-0.1630750447511673,0.7141194343566895,-0.09912404417991638,-0.1220703125,4.69970703125,-2.86865234375
4.920028000000002,2.164358377456665,10.582371711730957,2.387019157409668,-0.8175048828125,-0.4388427734375,-0.0399169921875,-0.171335369348526,0.8662695288658142,-0.12950076162815094,-1.3427734375,9.82666015625,-1.46484375
4.9300190000000015,1.7310078144073486,10.381258964538574,1.9249382019042969,-0.818115234375,-0.453857421875,-0.041259765625,-0.1681378185749054,0.9408790469169617,-0.12550382316112518,-1.3427734375,9.82666015625,-1.46484375
4.940027000000001,1.7070658206939697,10.32858657836914,1.3982137441635132,-0.8409423828125,-0.465087890625,-0.043701171875,-0.14868606626987457,0.8566768765449524,-0.0905972421169281,1.15966796875,12.02392578125,-1.220703125
4.950020000000002,1.4484920501708984,10.256759643554688,0.8403648138046265,-0.8797607421875,-0.4696044921875,-0.0384521484375,-0.11298009008169174,0.6650903224945068,-0.04476569592952728,1.15966796875,12.02392578125,-1.220703125
4.960029000000002,1.5849615335464478,10.42195987701416,0.6224924325942993,-0.8985595703125,-0.464111328125,-0.045166015625,-0.09246248006820679,0.3909004330635071,-0.00559571199119091,3.41796875,5.7373046875,-2.86865234375
4.970019000000001,1.623268723487854,10.498574256896973,0.9313444495201111,-0.9012451171875,-0.4544677734375,-0.0501708984375,-0.0839356780052185,0.16094334423542023,0.006661561783403158,3.96728515625,2.0751953125,-3.47900390625
4.98002,1.721431016921997,10.599130630493164,1.4293384552001953,-0.871826171875,-0.4468994140625,-0.045654296875,-0.08446860313415527,0.03757121041417122,0.0173200611025095,3.47900390625,-0.6103515625,-3.7841796875
4.990020000000001,1.8770540952682495,10.802638053894043,2.1045033931732178,-0.8466796875,-0.4346923828125,-0.055908203125,-0.09459418058395386,0.05515773221850395,-0.0037304747384041548,2.01416015625,-1.28173828125,-3.90625
5.000019999999999,1.7070658206939697,10.769119262695312,2.5474305152893066,-0.83837890625,-0.4361572265625,-0.048095703125,-0.1103154644370079,0.23262174427509308,-0.03570597246289253,0.732421875,-0.732421875,-3.96728515625
5.010010000000001,1.800439715385437,10.74996566772461,2.609679937362671,-0.83837890625,-0.4361572265625,-0.048095703125,-0.135096475481987,0.4663093388080597,-0.06181929633021355,0.732421875,-0.732421875,-3.96728515625
5.02,1.7693150043487549,10.69489860534668,2.4444799423217773,-0.81689453125,-0.455078125,-0.0455322265625,-0.16014394164085388,0.7173169851303101,-0.0889984667301178,0.06103515625,4.39453125,-1.8310546875
5.030010000000001,1.678335428237915,10.60391902923584,2.073378562927246,-0.81689453125,-0.455078125,-0.0455322265625,-0.1910535991191864,0.9001102447509766,-0.11671055853366852,0.06103515625,4.39453125,-1.8310546875
5.039999999999999,1.556231141090393,10.424354553222656,1.5658079385757446,-0.832763671875,-0.4599609375,-0.05810546875,-0.21716691553592682,1.0141562223434448,-0.135096475481987,1.03759765625,10.80322265625,0.0
5.050018999999999,1.45806884765625,10.261548042297363,1.0295066833496094,-0.832763671875,-0.4599609375,-0.05810546875,-0.21716691553592682,0.9789831638336182,-0.12976722419261932,1.40380859375,11.962890625,0.1220703125
5.060026000000001,1.5490485429763794,10.26394271850586,0.6799532771110535,-0.86083984375,-0.4544677734375,-0.067626953125,-0.1945176124572754,0.8268330693244934,-0.09432771801948547,1.8310546875,11.71875,-0.1220703125
5.070019000000002,1.4437036514282227,10.251971244812012,0.5363011956214905,-0.8499755859375,-0.4583740234375,-0.059326171875,-0.15747931599617004,0.6048698425292969,-0.05009494721889496,2.44140625,8.72802734375,-0.6103515625
5.080020000000001,1.403002142906189,10.287884712219238,0.6727706789970398,-0.8380126953125,-0.4576416015625,-0.0618896484375,-0.12177335470914841,0.3964961767196655,-0.015454824082553387,2.62451171875,5.92041015625,-1.28173828125
5.090019999999999,1.3862427473068237,10.407594680786133,0.9481038451194763,-0.8270263671875,-0.450927734375,-0.066162109375,-0.10978253930807114,0.2933751940727234,-0.0021316998172551394,2.74658203125,4.5166015625,-1.953125
5.100019,1.5083470344543457,10.486603736877441,1.1827356815338135,-0.822021484375,-0.437744140625,-0.0770263671875,-0.11324655264616013,0.2960398197174072,-0.00506278732791543,2.01416015625,3.96728515625,-2.8076171875
5.110019000000001,1.4173674583435059,10.436325073242188,1.4293384552001953,-0.80810546875,-0.4351806640625,-0.07470703125,-0.11990811675786972,0.34986522793769836,-0.017053598538041115,0.91552734375,4.638671875,-3.23486328125
5.12002,1.1659762859344482,10.32858657836914,1.5298948287963867,-0.804931640625,-0.445068359375,-0.0738525390625,-0.12443797290325165,0.46524348855018616,-0.018652373924851418,0.42724609375,7.01904296875,-2.685546875
5.130019000000001,1.2306196689605713,10.38604736328125,1.1803414821624756,-0.8262939453125,-0.4505615234375,-0.0880126953125,-0.11884226649999619,0.5462480783462524,-0.011990811675786972,0.42724609375,9.94873046875,-2.44140625
5.140018999999999,1.2042834758758545,10.35252857208252,0.8044517636299133,-0.8541259765625,-0.4544677734375,-0.0799560546875,-0.1039203628897667,0.5172036290168762,-0.0023981621488928795,0.91552734375,11.3525390625,-2.38037109375
5.150019,1.1180921792984009,10.254365921020508,0.5386953949928284,-0.8626708984375,-0.4600830078125,-0.075927734375,-0.09006431698799133,0.43433383107185364,0.011724349111318588,1.28173828125,11.29150390625,-2.8076171875
5.160019000000002,1.0199298858642578,10.295066833496094,0.5770025849342346,-0.8619384765625,-0.46142578125,-0.0726318359375,-0.08153752237558365,0.3394732177257538,0.03064318373799324,1.953125,9.94873046875,-3.35693359375
5.170019,0.8738836050033569,10.357316970825195,0.9481038451194763,-0.849853515625,-0.4556884765625,-0.072998046875,-0.08180397748947144,0.28777948021888733,0.040768761187791824,2.685546875,7.2021484375,-4.0283203125
5.1800190000000015,0.9481038451194763,10.522516250610352,1.3287819623947144,-0.83154296875,-0.440185546875,-0.0909423828125,-0.09006431698799133,0.29071056842803955,0.036505360156297684,2.685546875,5.31005859375,-4.45556640625
5.1900189999999995,1.1180921792984009,10.632649421691895,1.6041151285171509,-0.831787109375,-0.4345703125,-0.0963134765625,-0.10285452008247375,0.32721590995788574,0.0045298621989786625,1.15966796875,6.28662109375,-4.45556640625
5.200019000000001,1.256955862045288,10.718840599060059,1.601720929145813,-0.8470458984375,-0.4415283203125,-0.0885009765625,-0.11457886546850204,0.4247412085533142,-0.017852986231446266,0.0,7.14111328125,-3.90625
5.210018999999999,1.2641384601593018,10.819397926330566,1.1468225717544556,-0.859375,-0.437744140625,-0.109619140625,-0.10978253930807114,0.4790995419025421,-0.02851148694753647,-0.3662109375,7.14111328125,-3.2958984375
5.220019000000001,0.9074024558067322,10.503362655639648,0.5961562395095825,-0.861328125,-0.4449462890625,-0.0899658203125,-0.09432771801948547,0.4415283501148224,-0.02717917412519455,-0.18310546875,6.65283203125,-2.99072265625
5.23002,0.6009446382522583,10.362105369567871,0.23942017555236816,-0.855224609375,-0.4476318359375,-0.0849609375,-0.08313629031181335,0.36292192339897156,-0.007194486912339926,-0.1220703125,6.16455078125,-3.2958984375
5.240020000000001,0.6751648783683777,10.453084945678711,0.2801215946674347,-0.859130859375,-0.442138671875,-0.101318359375,-0.06315161287784576,0.2323552817106247,0.015188361518085003,0.0,5.9814453125,-3.662109375
5.250019999999999,0.5386953949928284,10.398017883300781,0.7015010714530945,-0.85107421875,-0.43994140625,-0.104248046875,-0.04050229862332344,0.13376416265964508,0.03250842168927193,0.48828125,5.18798828125,-3.60107421875
5.260019,0.48602294921875,10.474632263183594,1.048660397529602,-0.8424072265625,-0.4420166015625,-0.100830078125,-0.022116385400295258,0.08926492929458618,0.045032158493995667,0.67138671875,3.96728515625,-3.96728515625
5.270019999999999,0.6584054827690125,10.565611839294434,1.2114660739898682,-0.8475341796875,-0.44580078125,-0.1036376953125,-0.016254210844635963,0.09645941853523254,0.035972435027360916,0.18310546875,3.662109375,-4.33349609375
5.28002,0.7565677165985107,10.575188636779785,1.2018892765045166,-0.85595703125,-0.447021484375,-0.1072998046875,-0.031176110729575157,0.1614762544631958,0.012257273308932781,-0.18310546875,3.47900390625,-3.90625
5.290019000000001,0.950498104095459,10.613495826721191,1.0438719987869263,-0.8524169921875,-0.4444580078125,-0.108642578125,-0.05382541939616203,0.2254272699356079,-0.0173200611025095,-0.42724609375,3.11279296875,-3.23486328125
5.30002,0.7876923680305481,10.553641319274902,1.0845733880996704,-0.8392333984375,-0.4473876953125,-0.10302734375,-0.07487595826387405,0.2845819294452667,-0.038637056946754456,-0.732421875,2.99072265625,-2.62451171875
5.3100200000000015,0.7972691655158997,10.591948509216309,1.256955862045288,-0.81103515625,-0.444091796875,-0.1044921875,-0.08100459724664688,0.36984992027282715,-0.04929555580019951,-0.79345703125,3.5400390625,-2.3193359375
5.320019000000002,0.9074024558067322,10.63743782043457,1.173158884048462,-0.8150634765625,-0.431884765625,-0.1280517578125,-0.07034609466791153,0.4665758013725281,-0.06341806799173355,-0.91552734375,5.55419921875,-2.0751953125
5.330020000000001,0.9409212470054626,10.60152530670166,0.7541735172271729,-0.8294677734375,-0.43408203125,-0.1275634765625,-0.049029093235731125,0.5073445439338684,-0.05835527926683426,-1.5869140625,7.50732421875,-1.8310546875
5.340019000000002,0.7254431247711182,10.417171478271484,0.3519476354122162,-0.8304443359375,-0.4520263671875,-0.1004638671875,-0.024248085916042328,0.4759019911289215,-0.038104135543107986,-2.13623046875,8.85009765625,-1.8310546875
5.350019,0.3663128614425659,10.266336441040039,0.08379705995321274,-0.8311767578125,-0.45703125,-0.1029052734375,-0.0002664624771568924,0.3855711817741394,-0.011457886546850204,-2.0751953125,8.85009765625,-2.38037109375
5.360020000000002,0.36152446269989014,10.304644584655762,-0.038307227194309235,-0.8519287109375,-0.4493408203125,-0.124755859375,0.02717917412519455,0.24088208377361298,0.02504747360944748,-1.5869140625,7.4462890625,-3.0517578125
5.370018999999999,0.3758896589279175,10.378864288330078,0.10295066982507706,-0.8753662109375,-0.4510498046875,-0.1123046875,0.05515773221850395,0.07274425029754639,0.058888208121061325,-1.46484375,5.31005859375,-3.60107421875
5.380019000000001,0.3926490843296051,10.469843864440918,0.30885201692581177,-0.8629150390625,-0.4569091796875,-0.0965576171875,0.04050229862332344,0.017586523666977882,0.05062786862254143,-1.52587890625,3.41796875,-3.72314453125
