Time,accX1,accY1,accZ1,accX2,accY2,accZ2,wX1,wY1,wZ1,wX2,wY2,wZ2
0,-0.208410454,0.036820181,1.090056766,-0.092370859,-0.641968617,0.811162945,-0.105252676,-0.039436448,-0.021849923,3.41796875,-2.624511719,-2.868652344
0.01002,-0.190838348,0.050975502,1.071508433,-0.093347422,-0.643921742,0.811529156,-0.067681469,0.078073502,-0.126836136,4.028320313,-2.624511719,-2.807617188
0.020013,-0.109079161,0.072696597,1.102259617,-0.093591563,-0.644043813,0.811651227,-0.07194487,0.088998467,-0.142290965,4.638671875,-2.685546875,-2.868652344
0.03002,-0.109323218,0.067083282,1.095182012,-0.091882578,-0.640747914,0.811651227,-0.096992344,-0.065549769,-0.021050537,4.333496094,-2.807617188,-2.807617188
0.040015,-0.179611701,0.037552353,1.068579749,-0.09273707,-0.640869984,0.809820172,-0.146820813,-0.077274114,0.068480857,3.051757813,-2.502441406,-2.807617188
0.05002,-0.187421526,0.03242715,1.073216881,-0.09273707,-0.642212758,0.812139508,-0.155081168,0.008526799,-0.019718224,2.44140625,-2.44140625,-2.807617188
0.060014,-0.152521347,0.056100704,1.08639596,-0.093103281,-0.642823109,0.812261578,-0.153482378,0.007460949,-0.08233691,1.892089844,-2.380371094,-2.868652344
0.07002,-0.145199625,0.063178365,1.08322317,-0.091394297,-0.642212758,0.81311607,-0.169736609,-0.022649311,-0.028777948,2.319335938,-2.44140625,-2.868652344
0.080013,-0.156914374,0.065130823,1.088348416,-0.092370859,-0.641724477,0.812017438,-0.181727409,-0.016254211,-0.013056661,3.601074219,-2.624511719,-2.868652344
0.090014,-0.15984307,0.061958079,1.092009222,-0.091272227,-0.640747914,0.812017438,-0.180128634,-0.023182238,0.011191424,4.028320313,-2.685546875,-2.9296875
0.100011,-0.179123587,0.034623666,1.083955389,-0.091394297,-0.640869984,0.813726422,-0.183592647,-0.042900458,0.015721286,3.479003906,-2.563476563,-2.868652344
0.11002,-0.195475432,0.035599895,1.068823854,-0.092126719,-0.642334828,0.815191266,-0.182260334,-0.023182238,-0.040768761,3.356933594,-2.563476563,-2.807617188
0.120014,-0.180587929,0.047802757,1.070288196,-0.092370859,-0.641602406,0.813604352,-0.183059722,0.033574272,-0.077540584,3.784179688,-2.685546875,-2.807617188
0.13002,-0.157158431,0.031206864,1.083955389,-0.09249293,-0.641480336,0.813970563,-0.184658498,-0.004529862,-0.083669223,4.577636719,-2.746582031,-2.868652344
0.14002,-0.190594291,0.027546006,1.06760352,-0.091882578,-0.637818227,0.814336773,-0.208107188,-0.064217456,-0.091396637,5.126953125,-2.746582031,-2.868652344
0.150019,-0.201820914,0.038040467,1.067847626,-0.091272227,-0.638184438,0.814092633,-0.209705979,0.023981623,-0.13243185,4.821777344,-2.746582031,-2.807617188
0.160013,-0.164724211,0.048290872,1.104944293,-0.091516367,-0.638428578,0.814580914,-0.203310877,0.089264929,-0.18599081,4.8828125,-2.807617188,-2.868652344
0.170021,-0.148128321,0.083923232,1.128861881,-0.090295664,-0.636719594,0.816289898,-0.209173039,0.067947932,-0.110315464,4.699707031,-2.685546875,-2.868652344
0.18002,-0.156182203,0.071476312,1.123980741,-0.090906016,-0.637574086,0.816167828,-0.186257273,0.051160797,0.008793262,3.967285156,-2.685546875,-2.9296875
0.19002,-0.164236097,0.042433498,1.12471296,-0.091394297,-0.637085805,0.81702232,-0.155880541,0.037038282,0.016254211,3.723144531,-2.502441406,-2.807617188
0.200015,-0.176683017,0.04048104,1.117147144,-0.090783945,-0.636231313,0.815679547,-0.131099537,0.004796324,0.002664625,4.028320313,-2.563476563,-2.807617188
0.21002,-0.180343872,0.033647436,1.101771503,-0.091394297,-0.636109242,0.817388531,-0.110848397,0.013323124,0,3.723144531,-2.624511719,-2.807617188
0.220012,-0.178147359,0.040236982,1.107140758,-0.090906016,-0.636231313,0.817510602,-0.097258806,0.018119449,-0.020784073,3.723144531,-2.563476563,-2.807617188
0.230014,-0.180587929,0.050975502,1.101039381,-0.091150156,-0.633911977,0.817144391,-0.081537522,0.02158346,-0.007194487,4.211425781,-2.685546875,-2.868652344
0.24002,-0.182296328,0.043409727,1.086884074,-0.089929453,-0.635743031,0.818975445,-0.067681469,0.038637057,0.027179174,4.089355469,-2.685546875,-2.868652344
0.250021,-0.185713127,0.012170398,1.068579749,-0.089929453,-0.636109242,0.818853375,-0.071411945,0.042101074,0.023981623,3.662109375,-2.685546875,-2.868652344
0.26002,-0.204505541,0.015587199,1.056865012,-0.091150156,-0.633911977,0.817998883,-0.088465542,0.066882081,-0.015454824,3.662109375,-2.624511719,-2.9296875
0.270021,-0.197916002,0.014610971,1.057353126,-0.090783945,-0.633301625,0.819707867,-0.089264929,0.119375192,-0.059687596,3.723144531,-2.746582031,-2.868652344
0.280021,-0.172534047,0.03511178,1.076389573,-0.091516367,-0.635010609,0.818243023,-0.102321595,0.131099537,-0.102055125,3.479003906,-2.624511719,-2.807617188
0.29002,-0.157646545,0.0458503,1.087860302,-0.090417734,-0.633179555,0.820318219,-0.099923424,0.081271052,-0.07087902,3.662109375,-2.624511719,-2.807617188
0.30002,-0.170093465,0.042189441,1.082979161,-0.091516367,-0.632569203,0.818975445,-0.104719758,0.043433387,-0.038104136,3.356933594,-2.624511719,-2.868652344
0.310021,-0.166920724,0.034135551,1.082979161,-0.090783945,-0.632569203,0.820440289,-0.095926493,0.054091886,-0.05489127,3.112792969,-2.502441406,-2.807617188
0.32002,-0.158134659,0.044630013,1.099575039,-0.091028086,-0.633179555,0.821416852,-0.100456357,0.020784073,-0.066615619,2.563476563,-2.563476563,-2.807617188
0.330021,-0.171069693,0.047314643,1.097866591,-0.091760508,-0.632447133,0.820440289,-0.101255737,-0.028511487,-0.009859112,2.014160156,-2.380371094,-2.746582031
0.34002,-0.194499204,0.032915265,1.092009222,-0.090661875,-0.633179555,0.820318219,-0.099390499,-0.035972435,0.002398162,1.831054688,-2.258300781,-2.746582031
0.35002,-0.200112515,0.032915265,1.090056766,-0.091516367,-0.632813344,0.820562359,-0.073810108,0.0042634,-0.025846859,2.075195313,-2.380371094,-2.746582031
0.36002,-0.17643896,0.015343142,1.093473565,-0.091272227,-0.632935414,0.820074078,-0.063684531,-0.009326187,-0.03437366,2.258300781,-2.258300781,-2.685546875
0.37002,-0.193034861,0.007533309,1.067359512,-0.091394297,-0.633545766,0.8208065,-0.090064317,-0.040768761,-0.026646247,2.563476563,-2.258300781,-2.746582031
0.38002,-0.211583195,0.0172956,1.0634546,-0.090173594,-0.632447133,0.820440289,-0.104186833,0.015454824,-0.053292494,2.9296875,-2.380371094,-2.746582031
0.39002,-0.199380344,0.030230635,1.078098021,-0.090661875,-0.632447133,0.822149273,-0.09352833,0.049828485,-0.11298009,2.746582031,-2.319335938,-2.685546875
0.40002,-0.188397754,0.042189441,1.081270714,-0.091638438,-0.632325063,0.823125836,-0.104719758,0.058355279,-0.067947932,2.014160156,-2.258300781,-2.807617188
0.410021,-0.180099815,0.038040467,1.08566374,-0.090783945,-0.632202992,0.819952008,-0.114845328,0.070612557,-0.025580399,1.525878906,-2.380371094,-2.807617188
0.42002,-0.169849408,0.041213212,1.099575039,-0.091882578,-0.632325063,0.821172711,-0.107117914,0.067148544,-0.043966308,1.647949219,-2.380371094,-2.807617188
0.43002,-0.162039583,0.046094357,1.098842819,-0.092004648,-0.633301625,0.82092857,-0.106052071,0.025580399,0.000266462,1.586914063,-2.319335938,-2.807617188
0.44003,-0.180587929,0.027301948,1.082735056,-0.091516367,-0.630494008,0.820562359,-0.104453288,-0.007460949,0.029843798,1.159667969,-2.319335938,-2.807617188
0.450021,-0.192790804,0.03242715,1.0807826,-0.092248789,-0.630860219,0.818853375,-0.105252676,0.032508422,0.001332312,1.037597656,-2.319335938,-2.807617188
0.46003,-0.178635473,0.041213212,1.098842819,-0.090783945,-0.631714711,0.822149273,-0.089531392,0.051160797,-0.009326187,0.854492188,-2.136230469,-2.746582031
0.47002,-0.18790964,0.036576124,1.099575039,-0.091638438,-0.632569203,0.819463727,-0.093261868,0.030909648,0.041834611,0.244140625,-2.136230469,-2.807617188
0.480029,-0.205725827,0.033403379,1.100551267,-0.089685313,-0.631714711,0.818975445,-0.081271052,0.031442571,0.057822358,-0.061035156,-2.136230469,-2.807617188
0.490021,-0.224762298,0.031694979,1.088348416,-0.090661875,-0.635010609,0.821538922,-0.073810108,0.063950993,0.066615619,0.183105469,-2.136230469,-2.807617188
0.500029,-0.219148987,0.03242715,1.085419732,-0.091028086,-0.634278188,0.82092857,-0.061819296,0.140692189,0.043166921,0.549316406,-2.136230469,-2.807617188
0.510021,-0.195231375,0.038284524,1.089080538,-0.091028086,-0.633423695,0.820440289,-0.053292494,0.167871356,0.037038282,1.098632813,-2.258300781,-2.746582031
0.52002,-0.200112515,0.035355837,1.086151854,-0.089807383,-0.634278188,0.821660992,-0.052226644,0.158012256,0.061019909,1.586914063,-2.136230469,-2.685546875
0.530014,-0.210606967,0.034379608,1.091521108,-0.091394297,-0.632202992,0.819585797,-0.039169986,0.169736609,0.044499233,1.281738281,-2.136230469,-2.746582031
0.54002,-0.200112515,0.052683903,1.094449793,-0.090295664,-0.633911977,0.819097516,-0.00319755,0.19425115,0.012790199,0.48828125,-2.136230469,-2.868652344
0.55002,-0.184248784,0.03242715,1.089568652,-0.089563242,-0.634766469,0.818853375,0.034640122,0.150817752,0.015721286,-0.366210938,-2.014160156,-2.807617188
0.559999,-0.196939774,0.023397032,1.072728766,-0.090661875,-0.635987172,0.818609234,0.02051761,0.132964775,0.008526799,-0.854492188,-2.014160156,-2.807617188
0.570021,-0.187177469,0.038284524,1.064186722,-0.091028086,-0.636353383,0.818853375,0.019984685,0.15534763,-0.031442571,-0.061035156,-2.075195313,-2.746582031
0.580001,-0.184980956,0.02803412,1.066871398,-0.089807383,-0.637207875,0.818120953,0.000532925,0.13456355,-0.027445635,0.732421875,-2.197265625,-2.685546875
0.59002,-0.191326462,0.036332066,1.068823854,-0.090295664,-0.635987172,0.817998883,-0.034640122,0.128701374,-0.037038282,0.732421875,-2.197265625,-2.685546875
0.60003,-0.203285256,0.043409727,1.072728766,-0.090173594,-0.634644398,0.818975445,-0.057289433,0.136162326,-0.007460949,0.9765625,-2.319335938,-2.807617188
0.61002,-0.207190169,0.04487407,1.079318257,-0.089685313,-0.635498891,0.818487164,-0.061286367,0.145222053,-0.027179174,0.9765625,-2.319335938,-2.807617188
0.620021,-0.200112515,0.041701326,1.08639596,-0.090295664,-0.634644398,0.81702232,-0.061286367,0.123905048,-0.025313934,0.549316406,-2.197265625,-2.868652344
0.63002,-0.217440588,0.034867723,1.078830143,-0.091638438,-0.634888539,0.817998883,-0.070346095,0.09272895,-0.025846859,0.549316406,-2.197265625,-2.868652344
0.64002,-0.214267822,0.044141898,1.077853915,-0.09249293,-0.637940297,0.819219586,-0.065816231,0.120973967,-0.070612557,1.892089844,-2.319335938,-2.807617188
0.650021,-0.189129925,0.049999273,1.089324644,-0.091638438,-0.633545766,0.817144391,-0.066082694,0.094594181,-0.056756508,1.892089844,-2.319335938,-2.807617188
0.66002,-0.198160059,0.025837605,1.08322317,-0.092248789,-0.635498891,0.818120953,-0.081803977,0.004796324,-0.042367533,1.831054688,-2.258300781,-2.685546875
0.67002,-0.225006355,0.031939036,1.073460889,-0.091638438,-0.634888539,0.819707867,-0.101522207,-0.018119449,-0.075142421,1.770019531,-2.319335938,-2.746582031
0.680021,-0.220125215,0.038528582,1.079562363,-0.092248789,-0.634766469,0.818975445,-0.109782539,0.027179174,-0.105519146,2.075195313,-2.319335938,-2.807617188
0.69002,-0.199136287,0.049023044,1.098842819,-0.092615,-0.636597523,0.816045758,-0.130300149,0.024514547,-0.087932616,2.868652344,-2.380371094,-2.807617188
0.700023,-0.208654511,0.047802757,1.102015609,-0.091150156,-0.635010609,0.817632672,-0.152949467,-0.020784073,-0.01385605,3.234863281,-2.380371094,-2.746582031
0.71002,-0.236721092,0.037552353,1.084687512,-0.091150156,-0.635010609,0.817632672,-0.153482378,-0.01385605,-0.0063951,3.234863281,-2.380371094,-2.746582031
0.720023,-0.245263112,0.028522234,1.088592424,-0.092004648,-0.634766469,0.819463727,-0.154548228,0.049029093,-0.022649311,3.051757813,-2.380371094,-2.746582031
0.730021,-0.222077671,0.041701326,1.105676416,-0.092004648,-0.634766469,0.819463727,-0.141491577,0.056490045,-0.038370594,3.051757813,-2.380371094,-2.746582031
0.74002,-0.214267822,0.041457269,1.095426021,-0.091394297,-0.632935414,0.817144391,-0.140958652,-0.00106585,0.014388974,2.380371094,-2.502441406,-2.807617188
0.75002,-0.243066599,0.029254406,1.075657451,-0.091394297,-0.632935414,0.817144391,-0.127635539,-0.024248086,-0.000266462,2.380371094,-2.502441406,-2.868652344
0.760014,-0.235988921,0.028522234,1.066139178,-0.090661875,-0.634156117,0.82092857,-0.102321595,0.018119449,-0.065016843,2.319335938,-2.380371094,-2.807617188
0.770021,-0.208410454,0.012170398,1.064674836,-0.091394297,-0.632813344,0.817266461,-0.125770286,0.006128637,-0.046098009,1.892089844,-2.380371094,-2.807617188
0.780021,-0.232328066,0.009241711,1.046370511,-0.091028086,-0.634034047,0.819463727,-0.176398173,-0.002931087,-0.040235836,2.319335938,-2.502441406,-2.807617188
0.79002,-0.23281618,0.038040467,1.055644678,-0.091882578,-0.633545766,0.822027203,-0.197448686,0.082869835,-0.043433387,2.685546875,-2.44140625,-2.807617188
0.800021,-0.201088743,0.050975502,1.093961679,-0.091516367,-0.632447133,0.820440289,-0.188655436,0.121240422,-0.030376723,2.319335938,-2.44140625,-2.807617188
0.810021,-0.189618039,0.059761563,1.106652644,-0.091150156,-0.632447133,0.821660992,-0.15481469,0.046630934,-0.040502299,1.831054688,-2.197265625,-2.685546875
0.82002,-0.200112515,0.06269025,1.100551267,-0.090295664,-0.634034047,0.820562359,-0.124704443,-0.001332312,-0.00106585,1.342773438,-2.258300781,-2.746582031
0.83002,-0.195963546,0.061225906,1.089812758,-0.090173594,-0.634034047,0.8208065,-0.076208271,-0.009326187,-0.043433387,1.586914063,-2.197265625,-2.807617188
0.840021,-0.179123587,0.062202136,1.089324644,-0.091028086,-0.633667836,0.821783063,-0.038637057,-0.033574272,-0.046897396,2.319335938,-2.380371094,-2.746582031
0.85002,-0.193034861,0.051463616,1.091032994,-0.090173594,-0.633911977,0.818731305,-0.05489127,-0.086866774,0.046897396,2.44140625,-2.319335938,-2.746582031
0.86002,-0.237209207,0.039504811,1.077609907,-0.089685313,-0.631836781,0.817998883,-0.059687596,-0.116444103,0.117776416,2.197265625,-2.319335938,-2.807617188
0.87002,-0.262835218,0.01363474,1.061502144,-0.091272227,-0.633301625,0.819463727,-0.068214394,-0.05808882,0.130566612,1.46484375,-2.136230469,-2.746582031
0.88002,-0.246483398,0.004116507,1.061502144,-0.090661875,-0.632813344,0.818731305,-0.076208271,0.00106585,0.054624807,1.342773438,-2.136230469,-2.746582031
0.890021,-0.236965149,0.008753597,1.064186722,-0.090173594,-0.634034047,0.819341656,-0.099124044,-0.000799387,0.023448698,2.258300781,-2.319335938,-2.746582031
0.90002,-0.235012693,0.016563429,1.053448213,-0.089807383,-0.634034047,0.82092857,-0.11298009,0.016787136,0.008260337,3.051757813,-2.380371094,-2.685546875
0.91002,-0.207434226,0.021932688,1.066139178,-0.089807383,-0.632447133,0.819829938,-0.115111791,0.03757121,-0.044232771,3.112792969,-2.502441406,-2.746582031
0.920014,-0.177415188,0.045606242,1.091765214,-0.090295664,-0.63147057,0.821905133,-0.116977029,-0.02797856,-0.041301683,2.502441406,-2.44140625,-2.746582031
0.930014,-0.200844686,0.041213212,1.08883653,-0.089319102,-0.631592641,0.821660992,-0.123905048,-0.095926493,0.042367533,0.915527344,-2.319335938,-2.746582031
0.940013,-0.219881158,0.031939036,1.082246942,-0.090661875,-0.632813344,0.818853375,-0.113246553,-0.071145482,0.005329249,-0.48828125,-2.136230469,-2.746582031
0.950014,-0.202309028,0.046826528,1.092741442,-0.090661875,-0.634766469,0.820562359,-0.110049009,-0.023448698,-0.02797856,-0.183105469,-2.136230469,-2.868652344
0.96002,-0.19230269,0.057809105,1.108117083,-0.090173594,-0.634644398,0.820318219,-0.100456357,-0.042367533,0.009326187,0.915527344,-2.380371094,-2.807617188
0.970014,-0.208654511,0.048534929,1.093961679,-0.090539805,-0.632447133,0.820440289,-0.099390499,-0.060486984,0.068480857,2.197265625,-2.380371094,-2.746582031
0.980012,-0.221589557,0.032183093,1.083711284,-0.090783945,-0.632202992,0.820318219,-0.079672284,-0.046897396,0.058621746,2.807617188,-2.44140625,-2.746582031
0.99002,-0.227202869,0.01119417,1.081758828,-0.091150156,-0.633057484,0.8208065,-0.075941809,-0.044499233,0.007993874,2.502441406,-2.319335938,-2.685546875
1.00002,-0.234524579,0.022664861,1.073949003,-0.090783945,-0.632691273,0.819585797,-0.093261868,-0.032774884,-0.013056661,2.258300781,-2.319335938,-2.746582031
1.01002,-0.236965149,0.012414455,1.066871398,-0.090906016,-0.632447133,0.820318219,-0.088732004,-0.042367533,-0.044232771,2.319335938,-2.319335938,-2.746582031
1.02002,-0.234768636,0.021444574,1.054424441,-0.090906016,-0.632202992,0.82068443,-0.096459419,-0.023448698,-0.060220521,2.685546875,-2.44140625,-2.746582031
1.030021,-0.223053899,0.021444574,1.060769924,-0.090051523,-0.631836781,0.821050641,-0.095660031,-0.016787136,-0.07194487,2.685546875,-2.44140625,-2.807617188
1.04002,-0.229643439,0.028766291,1.06028181,-0.091028086,-0.6313485,0.819952008,-0.109516084,-0.003730475,-0.065816231,2.014160156,-2.380371094,-2.746582031
1.050021,-0.213291594,0.039016696,1.071508433,-0.090295664,-0.630249867,0.82092857,-0.085534461,0.043433387,-0.102055125,1.220703125,-2.197265625,-2.807617188
1.06002,-0.179855758,0.050487387,1.091521108,-0.089563242,-0.632935414,0.820562359,-0.086866774,0.018119449,-0.063684531,0.061035156,-2.258300781,-2.868652344
1.07002,-0.191082405,0.060493735,1.101283389,-0.091028086,-0.631714711,0.821050641,-0.076741189,-0.053825419,0.006128637,0,-2.136230469,-2.807617188
1.080021,-0.212559423,0.037308295,1.087372188,-0.090783945,-0.632691273,0.821660992,-0.048762634,-0.100456357,0.030909648,-0.122070313,-2.075195313,-2.746582031
1.09002,-0.232084009,0.014366914,1.067115406,-0.090539805,-0.635743031,0.819585797,-0.068214394,-0.099923424,0.02797856,-0.427246094,-2.014160156,-2.868652344
1.100021,-0.229643439,0.017783714,1.063210494,-0.091638438,-0.634522328,0.820196148,-0.079139359,-0.033307809,-0.046098009,0.854492188,-2.258300781,-2.807617188
1.110021,-0.208166397,0.030962807,1.078830143,-0.092126719,-0.632202992,0.820196148,-0.10258805,-0.001598775,-0.051960181,2.563476563,-2.44140625,-2.746582031
1.12002,-0.208410454,0.025837605,1.082002933,-0.092126719,-0.632325063,0.821538922,-0.130833074,0.0063951,0.016520673,2.990722656,-2.258300781,-2.746582031
1.130024,-0.209142625,0.020712401,1.085419732,-0.092004648,-0.631836781,0.820562359,-0.132165387,0.006128637,-0.0063951,2.868652344,-2.319335938,-2.685546875
1.140021,-0.21890493,0.026813833,1.080538591,-0.090661875,-0.63147057,0.82092857,-0.138294026,0.015721286,-0.020784073,2.380371094,-2.258300781,-2.746582031
1.15002,-0.207678283,0.034623666,1.087616196,-0.091638438,-0.632080922,0.821294781,-0.13243185,0.05142726,-0.046364475,1.892089844,-2.197265625,-2.746582031
1.160021,-0.185713127,0.055124475,1.098354705,-0.091272227,-0.6313485,0.820440289,-0.121773355,0.041568145,-0.054624807,1.586914063,-2.258300781,-2.807617188
1.170021,-0.1813201,0.06537488,1.102503723,-0.090906016,-0.633789906,0.823614117,-0.112180702,0.003996937,0.021849923,1.647949219,-2.380371094,-2.807617188
1.180021,-0.196695717,0.060493735,1.098598811,-0.091516367,-0.631836781,0.821905133,-0.102055125,-0.01385605,0.101522207,0.9765625,-2.319335938,-2.868652344
1.19002,-0.199624401,0.062934307,1.099575039,-0.091028086,-0.632447133,0.821050641,-0.086067379,-0.007993874,0.167338446,0.183105469,-2.197265625,-2.868652344
1.20002,-0.201576857,0.041945383,1.099819047,-0.091272227,-0.633545766,0.819707867,-0.05595712,-0.055157732,0.213969365,-0.610351563,-2.197265625,-2.868652344
1.210021,-0.219881158,0.005824909,1.085419732,-0.092859141,-0.634034047,0.818365094,-0.03543951,-0.148686066,0.152949467,-0.915527344,-2.075195313,-2.807617188
1.22002,-0.284556317,-0.022485732,1.037096344,-0.092248789,-0.636231313,0.817388531,-0.065283306,-0.158811629,0.118042871,-0.122070313,-2.258300781,-2.746582031
1.23002,-0.301396276,-0.0381054,1.017815888,-0.091028086,-0.634644398,0.817510602,-0.083935678,0.0063951,-0.05595712,1.342773438,-2.380371094,-2.746582031
1.240021,-0.244286884,0.001919994,1.061258038,-0.089563242,-0.636475453,0.818487164,-0.120973967,0.139626339,-0.195317,3.173828125,-2.380371094,-2.746582031
1.25002,-0.205969884,0.04048104,1.094449793,-0.089441172,-0.633179555,0.82068443,-0.139892802,0.131632462,-0.173200607,4.455566406,-2.502441406,-2.807617188
1.260019,-0.213291594,0.032915265,1.102991837,-0.088464609,-0.631958852,0.821783063,-0.130033687,0.08207044,-0.137494639,4.089355469,-2.502441406,-2.746582031
1.27002,-0.21036291,0.0458503,1.102015609,-0.089441172,-0.632813344,0.82068443,-0.097525269,0.080738127,-0.179329246,2.868652344,-2.44140625,-2.746582031
1.280029,-0.19230269,0.042921612,1.101771503,-0.090417734,-0.633179555,0.82068443,-0.08313629,0.030643184,-0.125503823,1.953125,-2.319335938,-2.868652344
1.290013,-0.209630739,0.040236982,1.095182012,-0.089807383,-0.633423695,0.820318219,-0.090064317,-0.019718224,-0.079139359,1.46484375,-2.197265625,-2.868652344
1.300029,-0.219148987,0.042433498,1.088348416,-0.091028086,-0.632569203,0.821416852,-0.060486984,-0.031709034,-0.079405814,1.586914063,-2.319335938,-2.807617188
1.310013,-0.225982584,0.029010348,1.079806371,-0.090661875,-0.632813344,0.817876813,-0.064483918,-0.054091886,-0.040502299,1.220703125,-2.380371094,-2.807617188
1.32003,-0.236965149,0.022908918,1.075169337,-0.091882578,-0.63147057,0.817998883,-0.076208271,-0.045298621,-0.021316998,1.342773438,-2.380371094,-2.868652344
1.33002,-0.24379877,0.007533309,1.072728766,-0.091394297,-0.631592641,0.819585797,-0.074076563,-0.052226644,-0.035705972,1.586914063,-2.44140625,-2.746582031
1.34002,-0.252096709,-0.001740867,1.059793696,-0.090539805,-0.632447133,0.820196148,-0.074343033,-0.04103522,-0.098324656,1.46484375,-2.258300781,-2.868652344
1.35002,-0.245263112,0.013390683,1.064186722,-0.091516367,-0.633301625,0.820562359,-0.093794793,-0.007194487,-0.159611031,1.647949219,-2.319335938,-2.807617188
1.36002,-0.230619667,0.042677555,1.072728766,-0.091150156,-0.635865102,0.82092857,-0.103653908,0.023448698,-0.140425727,2.502441406,-2.380371094,-2.746582031
1.37002,-0.208898568,0.059029392,1.08810431,-0.091150156,-0.632325063,0.821660992,-0.102055125,0.032774884,-0.073543645,3.112792969,-2.502441406,-2.685546875
1.38002,-0.201576857,0.061958079,1.100063153,-0.090417734,-0.63122643,0.822637555,-0.09033078,-0.0021317,-0.006128637,2.502441406,-2.319335938,-2.746582031
1.389994,-0.212315366,0.053172017,1.095182012,-0.090417734,-0.633057484,0.822027203,-0.053825419,-0.05595712,0.019451762,1.46484375,-2.258300781,-2.746582031
1.400014,-0.219393044,0.033647436,1.085419732,-0.090661875,-0.6313485,0.821783063,-0.039169986,-0.081271052,0.034107197,0.671386719,-2.197265625,-2.807617188
1.41,-0.226714755,0.015831256,1.071020319,-0.091760508,-0.63537682,0.819952008,-0.027179174,-0.101522207,-0.005062787,0.610351563,-2.197265625,-2.807617188
1.42002,-0.247215569,0.002652165,1.053204108,-0.092004648,-0.632569203,0.818609234,-0.05142726,-0.088199086,-0.069013782,0.610351563,-2.197265625,-2.807617188
1.43003,-0.261126819,0.023641089,1.058329354,-0.091150156,-0.632569203,0.819463727,-0.07301072,0.023715161,-0.107917301,2.9296875,-2.44140625,-2.807617188
1.440021,-0.227446926,0.034379608,1.081514819,-0.091272227,-0.632202992,0.822881695,-0.063151613,0.091396637,-0.15481469,2.9296875,-2.44140625,-2.807617188
1.45003,-0.211827252,0.055124475,1.085419732,-0.089807383,-0.631836781,0.821660992,-0.074076563,0.075941809,-0.079672284,2.807617188,-2.44140625,-2.807617188
1.46002,-0.213291594,0.057565048,1.08322317,-0.090906016,-0.631104359,0.822759625,-0.067947932,0.066882081,0.018918836,2.807617188,-2.44140625,-2.807617188
1.470019,-0.211095081,0.046338414,1.074437117,-0.091028086,-0.633057484,0.822271344,-0.048762634,0.075142421,0.02691271,1.647949219,-2.258300781,-2.807617188
1.480021,-0.192546747,0.036576124,1.06272238,-0.091760508,-0.630982289,0.822637555,-0.036238898,0.059421133,0.037837673,1.647949219,-2.258300781,-2.807617188
1.490021,-0.214511879,0.033159322,1.051251651,-0.090051523,-0.629639516,0.822637555,-0.04103522,0.011457887,0.039436448,1.037597656,-2.258300781,-2.807617188
1.500014,-0.227202869,0.043653784,1.055400669,-0.090295664,-0.629883656,0.820440289,-0.011191424,0.054358348,-0.007460949,0.854492188,-2.258300781,-2.807617188
1.51002,-0.205237713,0.047314643,1.071508433,-0.092370859,-0.631104359,0.821050641,0.016254211,0.057022974,-0.03757121,0.122070313,-2.136230469,-2.868652344
1.520019,-0.198648173,0.049511159,1.065407056,-0.092248789,-0.632325063,0.821538922,0.009859112,0.022915773,0.008793262,-0.061035156,-2.136230469,-2.807617188
1.53002,-0.194499204,0.046582471,1.061258038,-0.092248789,-0.632325063,0.821538922,0.008260337,0.008260337,-0.005329249,-0.061035156,-2.136230469,-2.807617188
1.54002,-0.188397754,0.045362185,1.055644678,-0.092248789,-0.630371938,0.823858258,-0.005862175,-0.019718224,-0.015721286,1.159667969,-2.258300781,-2.807617188
1.55002,-0.195231375,0.046094357,1.045394283,-0.092248789,-0.630371938,0.823858258,-0.03437366,-0.032774884,0.000532925,1.159667969,-2.258300781,-2.807617188
1.560021,-0.202553085,0.027790063,1.058085345,-0.090539805,-0.631836781,0.820440289,-0.02797856,-0.069280244,-0.059421133,1.770019531,-2.258300781,-2.807617188
1.570021,-0.225982584,0.034623666,1.05222788,-0.090539805,-0.631836781,0.820440289,-0.054091886,-0.095926493,-0.065283306,2.014160156,-2.319335938,-2.746582031
1.580021,-0.244042827,0.031450921,1.049543301,-0.08858668,-0.630371938,0.818975445,-0.053026035,-0.069546707,-0.096725874,1.708984375,-2.258300781,-2.746582031
1.590021,-0.236965149,0.046582471,1.061502144,-0.08858668,-0.630371938,0.818975445,-0.059421133,-0.005329249,-0.134030625,2.075195313,-2.319335938,-2.746582031
1.600021,-0.215488132,0.040725097,1.076633679,-0.090051523,-0.632325063,0.821172711,-0.072211333,0.002398162,-0.106052071,2.685546875,-2.44140625,-2.868652344
1.61002,-0.217684645,0.0458503,1.092741442,-0.091150156,-0.632569203,0.821416852,-0.103920363,0.000266462,-0.071145482,2.807617188,-2.44140625,-2.868652344
1.620014,-0.211095081,0.048046815,1.113242232,-0.091394297,-0.633057484,0.821905133,-0.098058186,0.022915773,-0.051960181,2.563476563,-2.319335938,-2.746582031
1.630021,-0.208654511,0.023885146,1.118367478,-0.091150156,-0.632325063,0.820196148,-0.096459419,-0.008526799,-0.047963247,2.9296875,-2.380371094,-2.807617188
1.64002,-0.232572123,0.032915265,1.104212074,-0.091150156,-0.632080922,0.819707867,-0.110315464,0.014921899,-0.057022974,3.356933594,-2.44140625,-2.807617188
1.65002,-0.214511879,0.057809105,1.118855592,-0.091150156,-0.63147057,0.821050641,-0.08233691,0.081803977,-0.094061248,3.967285156,-2.563476563,-2.868652344
1.66002,-0.192058633,0.054880418,1.113242232,-0.089807383,-0.629761586,0.821416852,-0.042367533,0.009326187,-0.086333841,4.272460938,-2.685546875,-2.868652344
1.67002,-0.225006355,0.047314643,1.083467275,-0.090417734,-0.628418813,0.823003766,-0.044232771,-0.053292494,-0.022382848,3.234863281,-2.502441406,-2.807617188
1.68002,-0.245263112,0.046582471,1.063210494,-0.090173594,-0.630860219,0.824346539,-0.015721286,-0.019718224,-0.03011026,2.014160156,-2.502441406,-2.868652344
1.69002,-0.222565785,0.034135551,1.067847626,-0.090295664,-0.630005727,0.823980328,0.022915773,-0.032241959,-0.060486984,0.671386719,-2.319335938,-2.868652344
1.70002,-0.243554713,0.030474692,1.052471985,-0.091028086,-0.630982289,0.822759625,0.003730475,-0.108183771,-0.002664625,-0.427246094,-2.197265625,-2.868652344
1.710022,-0.282847918,0.009485768,1.028310292,-0.08858668,-0.631958852,0.822393414,-0.013589587,-0.087399691,0.0021317,-0.244140625,-2.197265625,-2.807617188
1.720024,-0.279187063,0.018759944,1.040269134,-0.091882578,-0.63122643,0.822027203,-0.03011026,-0.00106585,-0.104719758,0.671386719,-2.258300781,-2.807617188
1.73002,-0.260638705,0.04316567,1.061258038,-0.091882578,-0.63122643,0.819585797,-0.049828485,0.02691271,-0.117776416,1.770019531,-2.319335938,-2.807617188
1.740023,-0.258686249,0.055368533,1.081270714,-0.092615,-0.6313485,0.82068443,-0.05595712,0.050094947,-0.101522207,2.746582031,-2.380371094,-2.746582031
1.750023,-0.231839952,0.069035738,1.105676416,-0.091516367,-0.628907094,0.822637555,-0.03757121,0.051160797,-0.09033078,3.662109375,-2.44140625,-2.746582031
1.760023,-0.209142625,0.058053162,1.110801662,-0.091638438,-0.628662953,0.822027203,-0.007727412,0.008526799,-0.04769678,3.540039063,-2.319335938,-2.685546875
1.770024,-0.192546747,0.041945383,1.120075828,-0.091638438,-0.632080922,0.825323102,-0.005595712,-0.030376723,-0.069546707,3.967285156,-2.380371094,-2.746582031
1.780023,-0.194987318,0.060249678,1.136183592,-0.091394297,-0.628174672,0.822271344,-0.008260337,-0.058621746,-0.054091886,4.760742188,-2.502441406,-2.685546875
1.790022,-0.208898568,0.047314643,1.14521375,-0.091638438,-0.630371938,0.822881695,-0.00106585,-0.045831546,-0.03437366,5.432128906,-2.502441406,-2.624511719
1.800024,-0.210851024,0.047070585,1.151071119,-0.092981211,-0.632202992,0.825078961,-0.009326187,0.011724349,-0.033041347,6.652832031,-2.624511719,-2.685546875
1.810023,-0.210118853,0.043897841,1.155464145,-0.091638438,-0.628052602,0.825445172,0.001332312,0.050894335,-0.030643184,7.873535156,-2.807617188,-2.685546875
1.820023,-0.206457998,0.037552353,1.152779469,-0.092004648,-0.625000844,0.825323102,0.015188362,0.074343033,-0.064483918,8.911132813,-3.051757813,-2.685546875
1.830023,-0.187177469,0.050731444,1.146189978,-0.090051523,-0.625489125,0.829717633,0.041834611,0.080738127,-0.102055125,9.765625,-3.234863281,-2.746582031
1.840023,-0.203285256,0.065618937,1.13960039,-0.089074961,-0.624024281,0.83264732,0.054358348,0.03996937,-0.063151613,9.399414063,-3.356933594,-2.868652344
1.850022,-0.225982584,0.08221483,1.112021995,-0.087732188,-0.618775258,0.831792828,0.102055125,0.053026035,-0.030376723,7.690429688,-3.295898438,-2.990722656
1.860022,-0.220613329,0.060249678,1.078098021,-0.088342539,-0.619995961,0.833501813,0.146287903,0.023448698,0.01385605,4.8828125,-3.051757813,-3.112792969
1.870022,-0.227202869,0.040236982,1.022697029,-0.087732188,-0.621704945,0.834234234,0.147087291,-0.013589587,0.047430322,2.136230469,-2.685546875,-3.112792969
1.880024,-0.226714755,0.038528582,0.991213624,-0.08883082,-0.61962975,0.829961773,0.142557427,-0.039702907,0.027445635,0.305175781,-2.563476563,-3.051757813
1.890023,-0.229399382,0.023885146,0.971200949,-0.090051523,-0.624268422,0.836675641,0.12337213,-0.086600304,0.010924961,-0.610351563,-2.563476563,-3.112792969
1.900022,-0.239893834,0.022420802,0.980719124,-0.091394297,-0.618653188,0.828008648,0.062885143,-0.110581927,-0.015721286,-1.220703125,-2.685546875,-2.868652344
1.910023,-0.256001621,0.043897841,0.989749282,-0.090051523,-0.624756703,0.828374859,0.027179174,-0.140159264,-0.033840735,-1.159667969,-2.868652344,-2.563476563
1.920023,-0.26551987,0.023641089,0.999023449,-0.091638438,-0.624512563,0.820074078,-0.029577335,-0.144422665,-0.004796324,-0.915527344,-2.563476563,-2.502441406
1.930021,-0.259662477,0.03242715,1.012202528,-0.091638438,-0.630249867,0.829473492,-0.072477795,-0.14495559,-0.057022974,0.366210938,-2.136230469,-2.685546875
1.940023,-0.255757564,0.031694979,1.033435538,-0.092615,-0.623047719,0.819585797,-0.111381322,-0.156679943,-0.076208271,2.075195313,-2.075195313,-2.685546875
1.95002,-0.258930306,0.03242715,1.046858625,-0.091272227,-0.628662953,0.829351422,-0.131366,-0.146021441,-0.125237361,4.089355469,-2.197265625,-2.624511719
1.960021,-0.235988921,0.043409727,1.084687512,-0.090295664,-0.623291859,0.825567242,-0.137761101,-0.084468603,-0.180395097,5.798339844,-2.136230469,-2.624511719
1.97002,-0.215244075,0.059273449,1.149850785,-0.088220469,-0.624146352,0.830205914,-0.150817752,-0.059687596,-0.173999995,6.286621094,-2.258300781,-2.624511719
1.98002,-0.220857386,0.096370152,1.203787435,-0.086999766,-0.620850453,0.831792828,-0.136961713,-0.035972435,-0.149751917,6.713867188,-2.197265625,-2.685546875
1.990021,-0.210851024,0.11443039,1.229901585,-0.08870875,-0.624268422,0.834478375,-0.057289433,0.018918836,-0.107650839,6.896972656,-2.258300781,-2.563476563
2.00002,-0.177415188,0.117359074,1.226484787,-0.08858668,-0.620484242,0.833379742,0.008793262,0.051160797,-0.05249311,6.8359375,-2.319335938,-2.624511719
2.010024,-0.156914374,0.117603131,1.196221716,-0.089197031,-0.622437367,0.835821148,0.082869835,0.037038282,0,7.568359375,-2.685546875,-2.746582031
2.020022,-0.141782826,0.091489006,1.173036251,-0.089074961,-0.617432484,0.836065289,0.16414088,-0.034640122,-0.004796324,7.751464844,-2.9296875,-2.990722656
2.03002,-0.162527697,0.080018317,1.122516399,-0.090906016,-0.614502797,0.837041852,0.197981626,-0.148686066,0.013589587,6.042480469,-2.990722656,-3.173828125
2.040021,-0.188641811,0.067327339,1.0807826,-0.09249293,-0.614014516,0.83630943,0.242480844,-0.206508413,-0.028245023,3.051757813,-2.9296875,-3.295898438
2.05002,-0.200356572,0.071476312,1.05466845,-0.095300547,-0.614258656,0.833623883,0.251540571,-0.231022969,-0.018385911,0.183105469,-2.9296875,-3.173828125
2.06002,-0.220857386,0.084655403,1.057353126,-0.10030543,-0.617066273,0.83252525,0.248609498,-0.223295555,0.022649311,-2.136230469,-2.746582031,-2.9296875
2.07002,-0.219637101,0.125168911,1.102503723,-0.100061289,-0.61950768,0.829351422,0.279252678,-0.186790213,0.046364475,-3.234863281,-2.624511719,-2.685546875
2.08002,-0.221833614,0.141032629,1.121296162,-0.100671641,-0.618042836,0.827398297,0.366119444,-0.243813157,0.110049009,-2.807617188,-2.319335938,-2.624511719
2.090021,-0.25526945,0.081970773,1.079806371,-0.092004648,-0.620850453,0.830816266,0.44046247,-0.298970878,0.13456355,-2.258300781,-2.014160156,-2.807617188
2.100021,-0.258686249,0.056344761,1.029042511,-0.087854258,-0.623902211,0.830327984,0.460980088,-0.265663087,0.057022974,-1.220703125,-1.892089844,-2.807617188
2.11002,-0.233060237,0.074160942,1.015375318,-0.084558359,-0.624390492,0.830938336,0.476701379,-0.227558956,-0.020784073,0.244140625,-1.647949219,-2.807617188
2.12003,-0.224762298,0.080994545,1.020988581,-0.083825938,-0.62365807,0.832036969,0.482830018,-0.212370604,-0.007460949,1.220703125,-1.586914063,-2.807617188
2.13002,-0.245751227,0.095149867,1.055156564,-0.082971445,-0.618897328,0.833257672,0.484695256,-0.169736609,-0.015454824,0.610351563,-1.403808594,-2.868652344
2.140029,-0.242090371,0.114918504,1.094693898,-0.081872813,-0.618531117,0.831792828,0.548379779,-0.104186833,-0.033574272,-1.037597656,-1.220703125,-2.868652344
2.15002,-0.222077671,0.1097933,1.124224846,-0.08870875,-0.619873891,0.833013531,0.585684538,-0.121773355,0.015987748,-3.234863281,-1.037597656,-2.746582031
2.16003,-0.234280522,0.114918504,1.123980741,-0.084436289,-0.624268422,0.834112164,0.610465586,-0.16467382,0.113246553,-4.516601563,-1.037597656,-2.746582031
2.170021,-0.256245678,0.10442404,1.118855592,-0.085412852,-0.624878773,0.830938336,0.633914232,-0.190787122,0.170269519,-4.699707031,-1.037597656,-2.624511719
2.18002,-0.271377238,0.103203755,1.101527495,-0.084192148,-0.625367055,0.828619,0.668820798,-0.140692189,0.194517612,-5.187988281,-1.098632813,-2.685546875
2.19002,-0.225982584,0.117603131,1.112266004,-0.085046641,-0.626587758,0.830938336,0.721313894,-0.111381322,0.145754978,-6.042480469,-1.037597656,-2.624511719
2.200021,-0.194499204,0.159580987,1.124468855,-0.087610117,-0.622071156,0.824102398,0.743163884,-0.162808567,0.168404296,-7.568359375,-0.9765625,-2.624511719
2.21002,-0.194255147,0.206928086,1.118123372,-0.090539805,-0.62732018,0.823858258,0.826033652,-0.187589586,0.201712102,-8.911132813,-0.915527344,-2.563476563
2.220023,-0.173022162,0.2074162,1.123980741,-0.092859141,-0.630127797,0.821905133,0.909702957,-0.195317,0.243813157,-10.62011719,-0.732421875,-2.502441406
2.230001,-0.177415188,0.233530325,1.110313548,-0.093469492,-0.634400258,0.819952008,0.992306292,-0.257935673,0.296306252,-12.63427734,-0.549316406,-2.44140625
2.24002,-0.192790804,0.212053295,1.076877687,-0.094323984,-0.634156117,0.818120953,1.069580436,-0.276055127,0.355993867,-13.73291016,-0.427246094,-2.502441406
2.249993,-0.194255147,0.176420934,1.038316678,-0.093713633,-0.638062367,0.814702984,1.080238938,-0.272591114,0.367451757,-13.73291016,-0.427246094,-2.502441406
2.26002,-0.194743261,0.179349618,1.018304002,-0.093835703,-0.642090688,0.812749859,1.027212858,-0.235819295,0.353862166,-14.16015625,-0.183105469,-2.44140625
2.270023,-0.185713127,0.211565181,1.027822177,-0.093103281,-0.642456898,0.811529156,0.993638575,-0.190520674,0.336009204,-14.16015625,-0.183105469,-2.44140625
2.280014,-0.12982402,0.193993051,1.066627292,-0.092981211,-0.644287953,0.810308453,0.935016811,-0.250208259,0.383705974,-11.90185547,-0.366210938,-2.502441406
2.290014,-0.225006355,0.180325846,1.053204108,-0.091150156,-0.645264516,0.806646344,0.76661253,-0.35732618,0.489225119,-11.90185547,-0.366210938,-2.502441406
2.300021,-0.267472326,0.185206999,1.066139178,-0.092248789,-0.651368031,0.811162945,0.807647824,-0.209439516,0.114845328,-10.68115234,-0.48828125,-2.624511719
2.310013,-0.166676667,0.232065983,1.102503723,-0.09273707,-0.649048695,0.8051815,0.690404296,-0.239283308,-0.022382848,-10.68115234,-0.48828125,-2.624511719
2.320021,-0.210606967,0.331641357,1.055156564,-0.093591563,-0.651123891,0.803594586,0.668021441,-0.172134757,0.20411025,-8.056640625,-0.854492188,-2.685546875
2.330021,-0.225250413,0.31870631,1.027090055,-0.093713633,-0.652100453,0.804082867,0.718649268,0.037837673,0.291243494,-7.751464844,-0.9765625,-2.685546875
2.34002,-0.129091849,0.273067599,1.082735056,-0.095910898,-0.652954945,0.802373883,0.779402792,0.178529859,0.168670759,-9.27734375,-0.9765625,-2.746582031
2.350019,-0.089554575,0.327492363,1.100551267,-0.095788828,-0.653321156,0.800054547,0.742098033,0.122839205,0.325350702,-11.90185547,-0.793457031,-2.9296875
2.36002,-0.115912758,0.361172281,1.074925231,-0.095544688,-0.653809438,0.795049664,0.782600284,-0.035173047,0.383173048,-13.97705078,-0.732421875,-2.990722656
2.37002,-0.179611701,0.349457519,1.059549687,-0.095544688,-0.653809438,0.795049664,0.879592657,-0.016254211,0.434067398,-13.97705078,-0.732421875,-2.990722656
2.38002,-0.179855758,0.337254668,1.089568652,-0.097986094,-0.6625985,0.790533063,0.950738132,0.00106585,0.384771824,-15.13671875,-0.671386719,-2.807617188
2.39002,-0.196695717,0.383625551,1.121052057,-0.097986094,-0.6625985,0.790533063,1.010692239,0.000799387,0.380774885,-15.68603516,-0.48828125,-2.868652344
2.40002,-0.179855758,0.432681061,1.150338899,-0.098474375,-0.669068227,0.786870953,1.139660001,0.043699846,0.407687575,-16.47949219,-0.122070313,-2.746582031
2.410021,-0.142026883,0.466605035,1.138136048,-0.098474375,-0.669068227,0.786870953,1.337375164,-0.033840735,0.482297063,-17.39501953,0.061035156,-2.807617188
2.42002,-0.131288362,0.4192579,1.086639968,-0.097375742,-0.675293813,0.781988141,1.475935698,-0.117243491,0.659494638,-18.73779297,0.48828125,-2.746582031
2.43002,-0.102245553,0.40290608,1.050763537,-0.098352305,-0.676514516,0.778570172,1.573194504,-0.207041353,0.605935633,-19.89746094,0.671386719,-2.685546875
2.440021,-0.089798632,0.398024915,1.021476695,-0.099206797,-0.679566273,0.776372906,1.633414984,-0.345335364,0.589148581,-21.30126953,0.549316406,-2.9296875
2.45002,-0.151301062,0.469777776,1.020012353,-0.097986094,-0.683472523,0.772344586,1.746128559,-0.390367538,0.447656959,-22.64404297,0.549316406,-3.234863281
2.46002,-0.165456382,0.614015573,1.054424441,-0.096887461,-0.685181508,0.768438336,2.105319977,-0.252606452,0.281917304,-23.68164063,0.793457031,-3.234863281
2.470014,-0.069053767,0.625730358,1.122028285,-0.097009531,-0.686402211,0.76599693,2.535923481,-0.331745774,0.385304749,-26.61132813,1.403808594,-3.173828125
2.48002,-0.072226509,0.5871693,1.109581425,-0.099695078,-0.68994225,0.758794781,2.904441118,-0.739699841,0.52359879,-29.60205078,2.014160156,-3.173828125
2.490021,-0.177171131,0.492719136,1.050275423,-0.100061289,-0.694092641,0.752447125,3.070446968,-0.905972421,0.791926503,-33.26416016,2.563476563,-3.234863281
2.50002,-0.185225013,0.413156475,0.971689063,-0.103357188,-0.699097523,0.747564313,3.03340888,-0.885188341,0.764214396,-35.70556641,3.295898438,-3.112792969
2.51002,-0.141538769,0.471486175,0.884804666,-0.10445582,-0.709229359,0.743535992,2.933485508,-0.78846246,0.707990766,-36.01074219,3.601074219,-3.234863281
2.520021,-0.036594147,0.510535299,0.882608104,-0.105798594,-0.712647328,0.735479352,2.833828449,-0.743696809,0.716251135,-36.43798828,4.089355469,-3.662109375
2.53002,0.530106795,0.696751,1.190608356,-0.106653086,-0.715821156,0.731328961,2.165540457,-1.788762569,2.394431829,-36.68212891,4.455566406,-3.845214844
2.54002,-0.833197034,0.467337206,0.420119637,-0.106653086,-0.718506703,0.718877789,2.348600149,-1.911335349,1.494854569,-38.02490234,4.577636719,-4.333496094
2.550019,-0.196939774,0.545923615,0.821593801,-0.105676523,-0.729370961,0.726812359,2.287846804,-0.257136285,1.184692144,-42.23632813,5.004882813,-4.8828125
2.56002,-0.085161549,0.53079208,0.889929815,-0.10421168,-0.738526234,0.708623883,2.552710533,-0.167338446,0.011191424,-40.71044922,5.920410156,-5.187988281
2.570021,0.053462978,0.57984759,0.896763412,-0.106531016,-0.7407235,0.705205914,2.512474537,-0.233421117,-0.631782591,-37.109375,6.286621094,-5.249023438
2.58002,0.122531182,0.769236032,0.870893367,-0.106164805,-0.749878773,0.695074078,2.510343075,-0.399693698,-0.787929535,-36.43798828,5.615234375,-5.676269531
2.59002,0.04614126,0.831470621,0.803045467,-0.107141367,-0.756104359,0.686773297,2.514872789,-0.463111788,-0.302701384,-30.51757813,5.37109375,-4.760742188
2.600021,0.047605604,0.764110786,0.791818844,-0.109460703,-0.748047719,0.689458844,2.580156088,-0.55157733,-0.089531392,-25.75683594,4.577636719,-4.211425781
2.61002,0.068838586,0.764110786,0.780592173,-0.10824,-0.74841393,0.689336773,2.409087181,-0.704260349,0.325883597,-29.54101563,4.028320313,-4.333496094
2.62002,0.080553332,0.773140944,0.74642419,-0.110681406,-0.754639516,0.680669781,2.282784224,-0.827099502,0.613396645,-36.07177734,4.638671875,-4.333496094
2.63002,0.099345741,0.751907935,0.715917014,-0.110925547,-0.767090688,0.668218609,2.039237261,-1.011225104,1.006695271,-39.36767578,5.37109375,-4.516601563
2.640021,0.09153591,0.748491137,0.688826684,-0.111047617,-0.77185143,0.656377789,1.823935628,-1.284615517,1.137261868,-37.90283203,5.126953125,-4.455566406
2.650021,0.022711764,0.690405517,0.654658653,-0.112512461,-0.776490102,0.650396344,1.781301618,-1.397329211,0.761283278,-32.65380859,4.089355469,-4.272460938
2.66002,-0.030004602,0.61425963,0.620002507,-0.110925547,-0.779541859,0.648687359,1.779969335,-1.200147033,-0.324018389,-26.85546875,3.112792969,-3.967285156
2.67002,-0.012676538,0.762646444,0.62634799,-0.112634531,-0.77966393,0.645635602,1.749059677,-1.045065761,-1.16550684,-22.21679688,2.258300781,-3.601074219
2.680021,0.053462978,1.02110312,0.689314798,-0.112878672,-0.782593617,0.643926617,1.909736514,-1.041335344,-1.453552723,-19.65332031,1.953125,-3.479003906
2.69002,0.005139641,1.009144278,0.674427272,-0.11226832,-0.779297719,0.643560406,2.208174467,-1.134863734,-1.279819369,-18.31054688,2.44140625,-3.41796875
2.70002,-0.087114005,0.863442091,0.589251323,-0.113733164,-0.782837758,0.646001813,2.096793175,-1.089831591,-0.510542154,-20.99609375,3.540039063,-3.967285156
2.71002,-0.058071189,0.832934963,0.473080035,-0.112512461,-0.803589711,0.623662945,1.897212863,-1.032009244,0.035173047,-24.90234375,5.126953125,-4.577636719
2.72002,-0.066369134,0.889312135,0.407184591,-0.12374293,-0.768555531,0.654912945,1.702162385,-0.845751941,0.533724368,-22.39990234,6.225585938,-3.90625
2.73002,0.011729188,0.979125216,0.426221063,-0.112878672,-0.799927602,0.628179547,1.608367562,-0.45911485,1.045598745,-39.18457031,3.112792969,-6.042480469
2.74002,-0.019754198,0.977904979,0.380094237,-0.116784922,-0.807495961,0.604742047,1.684309244,-0.09033078,1.388003111,-39.12353516,3.967285156,-5.493164063
2.75002,0.054439206,0.916646618,0.451603017,-0.1160525,-0.811768422,0.600469586,1.654731989,0.75009191,1.61023283,-27.09960938,2.624511719,-4.211425781
2.760024,0.253589924,1.056003323,0.672962929,-0.116906992,-0.802002797,0.605352398,1.108750343,0.168937206,2.795191288,-18.00537109,0,-3.967285156
2.770014,0.036134913,0.935194952,0.506515896,-0.117395273,-0.796387563,0.611211773,1.435966372,-0.158278719,2.485295534,-18.12744141,-0.671386719,-4.028320313
2.78002,0.119114384,0.8168272,0.511152979,-0.116418711,-0.80725182,0.604986188,1.511108756,0.132964775,1.82526803,-26.24511719,0.061035156,-4.760742188
2.79002,0.191355335,0.873936591,0.567286142,-0.119104258,-0.806519398,0.596075055,1.364554286,0.014655436,1.658196092,-32.2265625,0.854492188,-4.760742188
2.800013,0.128144493,0.991816278,0.527748856,-0.1160525,-0.818238148,0.587285992,1.551611066,-0.314159274,1.338973999,-36.68212891,0.061035156,-5.432128906
2.810021,0.149377479,1.020126892,0.472347864,-0.115442148,-0.830933461,0.575201031,1.82526803,-0.370649308,0.967525303,-34.36279297,0.244140625,-5.249023438
2.82002,0.206242825,1.017198208,0.429881918,-0.116418711,-0.829834828,0.570196148,2.035773277,-0.472970903,0.97551918,-24.23095703,0.305175781,-4.211425781
2.83002,0.224547114,0.997917655,0.424756721,-0.114099375,-0.818360219,0.577154156,2.102655411,-0.593678415,1.164174676,-16.05224609,-0.610351563,-3.295898438
2.840021,0.235285647,0.957160084,0.426709177,-0.113244883,-0.821534047,0.581304547,2.079473019,-0.740232766,1.379209876,-18.06640625,-0.9765625,-3.845214844
2.850014,0.232356938,0.946177566,0.435007116,-0.114587656,-0.824219594,0.57459068,2.163142443,-0.810845315,1.322186708,-26.3671875,-0.305175781,-4.455566406
2.86002,0.218689745,0.903467539,0.429393804,-0.114343516,-0.828247914,0.565435406,2.176198959,-0.951537549,1.196683049,-32.77587891,0.671386719,-4.821777344
2.870023,0.248708783,0.934706838,0.395469854,-0.113244883,-0.844239125,0.550786969,2.243614197,-1.055724263,1.006162286,-33.99658203,1.403808594,-5.004882813
2.88002,0.226743627,0.980833663,0.447942162,-0.115564219,-0.843384633,0.542486188,2.316358328,-1.014422655,1.075708985,-26.91650391,1.831054688,-4.272460938
2.890021,0.314604252,0.956427961,0.248791427,-0.115442148,-0.843628773,0.538335797,2.34140563,-0.825500786,0.665090322,-18.43261719,1.220703125,-3.41796875
2.900021,0.330467958,0.99084005,0.200224031,-0.116662852,-0.843140492,0.540044781,2.350998402,-0.894780993,0.396762639,-12.93945313,1.159667969,-2.9296875
2.91002,0.352677171,0.99328062,0.19705129,-0.119348398,-0.836304555,0.544927594,2.194318533,-0.955800891,0.375978559,-11.04736328,1.525878906,-2.9296875
2.920021,0.347307917,1.161191947,0.06013517,-0.119592539,-0.835938344,0.551519391,1.200147033,-1.223595738,0.202511474,-15.44189453,1.831054688,-4.150390625
2.930021,0.227963912,0.9820539,0.13310829,-0.126428477,-0.83825768,0.555669781,0.64723736,-1.912934065,-0.126836136,-24.84130859,4.39453125,-5.554199219
2.94002,0.197944874,0.947641909,0.147751723,-0.120447031,-0.856202016,0.508916852,0.139093414,-1.815675259,0.45085454,-33.26416016,3.356933594,-7.019042969
2.950029,0.24651227,0.932266268,0.166300081,-0.114953867,-0.894532094,0.488531109,-0.006128637,-1.588116288,0.45911485,-23.25439453,-0.305175781,-6.8359375
2.96002,0.247488498,0.973267847,0.147263609,-0.121545664,-0.887329945,0.464849469,0.067681469,-1.8428545,-0.529727399,26.85546875,0.793457031,-2.258300781
2.97003,0.318997278,1.103594491,0.093571013,-0.123865,-0.840210805,0.532232281,0.229690656,-1.993139267,-1.058921933,85.99853516,-4.272460938,1.098632813
2.98002,0.410518758,1.209515335,0.08942204,-0.117761484,-0.813477406,0.589971539,0.316024512,-2.161277294,-0.609399676,94.42138672,-10.19287109,0.610351563
2.990029,0.440293714,1.199997062,0.119929198,-0.11214625,-0.80712975,0.604009625,0.289111793,-2.193519115,0.211571202,69.21386719,-8.728027344,-0.732421875
3.00002,0.437853144,1.103350385,0.163615441,-0.115564219,-0.808960805,0.591680523,0.262998462,-1.979816198,0.932352185,38.94042969,-3.967285156,-1.403808594
3.009995,0.429311148,0.97961333,0.195342891,-0.114221445,-0.82275475,0.580327984,0.248343036,-1.623289466,1.462346196,19.34814453,-2.197265625,-2.624511719
3.020023,0.417840468,0.91811096,0.246594914,-0.114465586,-0.826416859,0.578252789,0.337075025,-1.300336838,1.41065228,18.85986328,-1.953125,-3.112792969
3.03002,0.325098703,0.849530841,0.219992674,-0.113977305,-0.820435414,0.584722516,0.547846854,-1.139926553,0.774073541,25.63476563,-1.525878906,-2.319335938
3.040021,0.251881524,0.836351761,0.167764423,-0.115564219,-0.807984242,0.597539898,0.745828509,-0.960597217,0.14175804,28.50341797,-0.610351563,-1.770019531
3.05002,0.194528076,0.856364486,0.088445812,-0.115808359,-0.803833852,0.601568219,0.982180715,-0.859607935,-0.512940288,23.13232422,0.610351563,-2.319335938
3.060021,0.126436094,0.823416739,-0.026261097,-0.117029063,-0.804077992,0.603399273,1.291810036,-0.488692194,-1.735736489,13.24462891,1.525878906,-3.051757813
3.069992,0.209171509,1.028424831,-0.066042434,-0.118615977,-0.80700768,0.598394391,1.51670444,0.002931087,-2.790928125,2.258300781,1.098632813,-3.41796875
3.080014,0.333396642,1.135565912,-0.060185053,-0.119714609,-0.811036,0.591924664,1.60596931,0.535323083,-3.156248093,2.258300781,1.098632813,-3.41796875
3.089995,0.359266711,1.097004902,-0.049934658,-0.12008082,-0.809693227,0.594854352,1.626487017,0.735170007,-3.081372261,-5.493164063,-0.183105469,-4.089355469
3.10002,0.363171647,1.055271103,-0.008444922,-0.118738047,-0.811402211,0.59436607,1.464744329,0.944875956,-2.738434792,-5.493164063,-0.183105469,-4.089355469
3.110023,0.271894224,1.007435927,0.043051162,-0.119470469,-0.815796742,0.587285992,1.168970823,1.152983069,-2.233754873,-12.32910156,-0.366210938,-4.577636719
3.120014,0.217225403,0.93055782,0.105041705,-0.118738047,-0.820801625,0.581182477,0.858542085,1.335509896,-1.629684567,-12.32910156,-0.366210938,-4.577636719
3.130021,0.192087506,0.949350259,0.106261993,-0.118127695,-0.82275475,0.580816266,0.757019937,1.140992403,-1.21959877,-1.525878906,-2.075195313,-3.662109375
3.140014,0.137174615,0.975220303,0.06721283,-0.119104258,-0.817627797,0.584356305,0.865470171,0.779669225,-1.219065785,-1.525878906,-2.075195313,-3.662109375
3.150021,0.086898821,1.022079348,0.02010978,-0.118493906,-0.812622914,0.587774273,1.076774836,0.46018073,-1.340572715,-4.39453125,-3.90625,-3.540039063
3.160021,0.099589798,1.032085638,-0.003563776,-0.117029063,-0.809815297,0.591680523,1.230257273,0.172934145,-1.33177948,-13.85498047,-4.272460938,-4.028320313
3.170012,0.088119112,1.025496147,-0.008933036,-0.11617457,-0.816895375,0.587896344,1.316591024,-0.058355279,-1.16657269,-22.03369141,-3.967285156,-4.333496094
3.180019,0.089827511,0.998649874,0.00595446,-0.116662852,-0.820191273,0.581182477,1.352030635,-0.322153151,-0.955534458,-25.45166016,-3.845214844,-4.516601563
3.19002,0.141811711,0.963749672,0.035729444,-0.116662852,-0.820191273,0.581182477,1.380808592,-0.66588974,-0.701062799,-25.45166016,-3.845214844,-4.516601563
3.20002,0.175491604,0.923968329,0.05745054,-0.11593043,-0.833130727,0.561529156,1.442627788,-1.126603365,-0.652833045,-19.16503906,-3.112792969,-3.845214844
3.210013,0.168902064,0.912741706,0.016204864,-0.11593043,-0.833130727,0.561529156,1.528428793,-1.538820863,-0.806315482,-19.16503906,-3.112792969,-3.845214844
3.220014,0.10154226,0.955451733,-0.049690601,-0.11593043,-0.8344735,0.558355328,1.587583423,-1.766912699,-0.882257283,-8.666992188,-2.014160156,-3.173828125
3.230011,0.026128565,0.994012742,-0.137307156,-0.11593043,-0.8344735,0.558355328,1.612097979,-1.916931033,-0.927822351,-4.943847656,-1.708984375,-2.9296875
3.240014,-0.023171002,1.085534174,-0.208083765,-0.115442148,-0.833252797,0.55908775,1.627552748,-1.954768777,-0.949405789,-2.9296875,-1.342773438,-2.807617188
3.250019,0.044676916,1.156066799,-0.242739887,-0.115442148,-0.833252797,0.55908775,1.705892801,-2.088000059,-1.349099517,-0.732421875,-1.037597656,-2.685546875
3.260014,0.016610333,1.212932133,-0.301801734,-0.116540781,-0.840699086,0.552618023,1.724012256,-2.451188326,-1.644073486,4.028320313,-0.9765625,-2.563476563
3.27002,-0.064904792,1.198044606,-0.335725709,-0.1160525,-0.841553578,0.551031109,1.561203599,-2.028578758,-1.718416572,12.14599609,-0.427246094,-2.380371094
3.280013,-0.077351712,1.114577008,-0.324010947,-0.118249766,-0.833741078,0.559698102,1.24970901,-1.245978594,-1.354428768,23.25439453,0.305175781,-2.197265625
3.29002,-0.047576725,1.011584848,-0.251525939,-0.117395273,-0.833496938,0.564825055,0.91423279,-0.64403981,-0.772741199,32.40966797,0.244140625,-2.258300781
3.300021,-0.041231237,0.891264688,-0.191243807,-0.119104258,-0.825074086,0.574346539,0.649369061,-0.312826961,-0.332545161,41.9921875,1.281738281,-2.258300781
3.310013,-0.03146895,0.787296252,-0.136819042,-0.118615977,-0.817627797,0.585088727,0.593678415,-0.331479341,-0.479366004,49.13330078,2.197265625,-2.44140625
3.32002,-0.044892098,0.788516537,-0.141212069,-0.117273203,-0.807495961,0.595830914,0.822836161,-0.681877494,-1.22066462,47.72949219,1.525878906,-2.380371094
3.33002,-0.093947602,0.826101367,-0.185142381,-0.120691172,-0.801636586,0.604497906,1.073310852,-0.976318538,-1.637411952,38.51318359,-0.183105469,-2.136230469
3.340021,-0.137877914,0.922015873,-0.252502167,-0.119470469,-0.793824086,0.616704938,1.349099517,-1.066116333,-1.970490098,23.37646484,-2.197265625,-2.075195313
3.35002,-0.190838348,1.01622198,-0.342071191,-0.117151133,-0.799561391,0.614019391,1.55933845,-0.935283303,-2.17007041,3.784179688,-2.136230469,-2.807617188
3.36002,-0.22793504,1.027936717,-0.385269332,-0.119104258,-0.804688344,0.602666852,1.714153051,-0.74902606,-2.096526861,-10.86425781,-0.9765625,-3.540039063
3.370021,-0.254537279,0.938123636,-0.336701937,-0.122400156,-0.815674672,0.601202008,2.05282712,-0.472437978,-1.916398168,-16.54052734,-0.732421875,-3.967285156
3.38002,-0.2013328,0.920551531,-0.28984294,-0.109948984,-0.845703969,0.567266461,3.724879026,0.456450224,-1.515905142,-6.896972656,-0.366210938,-3.051757813
3.39002,-0.228179097,0.823904853,-0.313516495,-0.130823008,-0.741577992,0.632207867,3.708091736,0.836425722,-1.565467119,13.97705078,-0.854492188,1.098632813
3.400021,-0.212559423,0.74580651,-0.331088625,-0.110315195,-0.768311391,0.666021344,3.48106575,0.727709055,-1.066649318,-40.0390625,-5.859375,-6.652832031
3.41002,-0.198160059,0.708953851,-0.373066481,-0.120324961,-0.805542836,0.613164898,3.487727404,0.790327728,-0.637378275,-114.2578125,1.953125,-11.41357422
3.42002,-0.192790804,0.71627561,-0.401377096,-0.117029063,-0.856690297,0.518682477,3.333712101,0.960863709,-0.352796346,-146.8505859,11.41357422,-12.6953125
3.43002,-0.166676667,0.700899969,-0.431152101,-0.12008082,-0.883911977,0.464849469,3.092297077,1.018419623,-0.207307816,-124.3896484,13.61083984,-11.65771484
3.440021,-0.140074427,0.702852425,-0.462635456,-0.11593043,-0.891480336,0.45349693,2.895381212,0.985911131,-0.404490054,-72.32666016,8.483886719,-10.00976563
3.450021,-0.138610085,0.741413483,-0.49582726,-0.11214625,-0.883057484,0.47693443,2.681411982,0.681344509,-0.773274124,-23.49853516,1.46484375,-6.34765625
3.46002,-0.157158431,0.751419821,-0.520721125,-0.118860117,-0.868653188,0.493047711,2.628652334,0.591546714,-0.985644698,6.34765625,-2.502441406,-2.380371094
3.47002,-0.173754333,0.708465737,-0.545370884,-0.117883555,-0.854859242,0.515020367,2.715252876,0.976851463,-1.299803972,21.60644531,-4.455566406,-1.403808594
3.480021,-0.196695717,0.651356345,-0.588813082,-0.1160525,-0.843384633,0.536626813,2.885788441,1.218266487,-1.32565093,18.85986328,-4.577636719,-2.319335938
3.49002,-0.21646436,0.635980753,-0.636160193,-0.116540781,-0.853150258,0.521978375,2.938015223,1.176698327,-0.906238914,1.892089844,-1.708984375,-3.356933594
3.500021,-0.254049165,0.626462529,-0.668863882,-0.118615977,-0.856079945,0.511480328,2.912967682,1.061586499,-0.476701379,-7.934570313,0.061035156,-3.540039063
3.510021,-0.312134785,0.588389586,-0.701567523,-0.117029063,-0.853150258,0.51624107,2.722180605,1.037871361,0.2051761,-10.07080078,-0.061035156,-4.455566406
3.52002,-0.277722721,0.543727102,-0.679846448,-0.11593043,-0.866700063,0.498174664,2.474104166,1.461013794,1.224661589,-12.63427734,0.427246094,-5.737304688
3.530023,-0.131776476,0.498576505,-0.616391525,-0.116296641,-0.868775258,0.498418805,2.52020216,1.576125622,1.552410364,-4.089355469,0.9765625,-5.432128906
3.54002,-0.051481644,0.479540057,-0.599063477,-0.1160525,-0.868286977,0.494756695,2.731773376,1.363488555,1.127669215,8.361816406,1.342773438,-4.821777344
3.55002,-0.061243931,0.486861768,-0.615415297,-0.118738047,-0.8657235,0.49658775,2.833562136,1.155381322,0.284049004,22.64404297,1.281738281,-3.601074219
3.560023,-0.044403984,0.510535299,-0.691805242,-0.120691172,-0.859009633,0.510259625,2.495954037,1.385338426,-0.926490009,37.84179688,0.366210938,-2.9296875
3.57002,-0.027564031,0.476123259,-0.746230006,-0.120447031,-0.843628773,0.530157086,2.286781073,1.288346171,-1.73280549,45.22705078,-0.549316406,-2.807617188
3.580022,-0.003158305,0.484421198,-0.789672156,-0.12008082,-0.839722523,0.543951031,2.32488513,0.781001568,-1.968891263,39.0625,-1.403808594,-3.295898438
3.59002,-0.021706657,0.501017075,-0.81871499,-0.125940195,-0.840454945,0.543951031,2.46824193,0.707990766,-1.903607965,28.50341797,-0.732421875,-3.662109375
3.60002,-0.041719351,0.437562201,-0.747694348,-0.132531992,-0.842652211,0.542608258,2.86100769,1.046398163,-1.843653917,27.70996094,-0.122070313,-3.845214844
3.610021,-0.054166271,0.355558969,-0.757944743,-0.121179453,-0.850708852,0.553106305,3.942578793,1.925457835,-0.948872924,37.23144531,-0.610351563,-4.150390625
3.62002,-0.076375484,0.306747516,-0.817250648,-0.118005625,-0.842896352,0.53186607,3.877029181,1.984879017,-0.385571182,63.4765625,-0.671386719,-2.197265625
3.63002,-0.090774861,0.263549375,-0.845561359,-0.094568125,-0.822998891,0.581792828,3.398195982,1.90200913,-0.034640122,73.85253906,-2.44140625,-2.380371094
3.640021,-0.114204359,0.224744273,-0.867526491,-0.117883555,-0.837036977,0.575078961,2.899111748,1.516171575,0.199313939,48.52294922,-2.44140625,-3.540039063
3.65002,-0.116156815,0.177153105,-0.847513815,-0.134973398,-0.813721547,0.581548688,2.889519215,0.771408916,-0.076208271,61.64550781,-3.784179688,-2.136230469
3.66002,-0.113960302,0.14689001,-0.874360088,-0.115198008,-0.814453969,0.597417828,2.92735672,0.281117916,-0.567565084,82.51953125,-7.202148438,-2.685546875
3.670021,-0.091018918,0.1434732,-0.894616869,-0.119226328,-0.807984242,0.608770367,2.861274242,0.155880541,-0.794324696,94.36035156,-7.8125,-1.831054688
3.68002,-0.084917492,0.131758457,-0.904135044,-0.1316775,-0.805420766,0.628667828,2.791993856,0.131632462,-1.016820788,118.6523438,-9.094238281,0.183105469
3.690021,-0.09492383,0.096614209,-0.916093887,-0.103601328,-0.792969594,0.634771344,2.688872814,0.175865233,-1.208940268,143.371582,-11.16943359,1.46484375
3.700021,-0.091995146,0.071720369,-0.917070115,-0.107263438,-0.768433461,0.661504742,2.443194389,0.107917301,-1.313926458,158.203125,-12.75634766,2.807617188
3.71002,-0.085405606,0.033891494,-0.932445658,-0.112756602,-0.730957875,0.704473492,2.142624855,-0.095127106,-1.343770266,163.8793945,-14.83154297,4.089355469
3.720021,-0.077107655,0.005580852,-0.965393405,-0.110559336,-0.694458852,0.746099469,1.856177568,-0.156147003,-1.230257273,161.0107422,-15.99121094,4.211425781
3.73002,-0.075643313,-0.01101504,-0.973203229,-0.106286875,-0.688965688,0.764532086,1.686973929,0.010125575,-1.024814725,153.2592773,-15.01464844,3.90625
3.740021,-0.057583075,-0.014675902,-0.961488493,-0.107141367,-0.663697133,0.786138531,1.597442627,0.200113311,-0.908637047,143.0053711,-14.34326172,3.90625
3.75002,-0.05099353,-0.038837571,-0.924879939,-0.10824,-0.648072133,0.79749107,1.528428793,0.267794788,-0.937415004,128.0517578,-13.12255859,3.051757813
3.76002,-0.037814438,-0.065683861,-0.916826009,-0.106531016,-0.644043813,0.821050641,1.377078056,0.31575802,-0.917696834,121.2768555,-13.00048828,2.44140625
3.770021,-0.021950714,-0.080571364,-0.925612062,-0.112634531,-0.635010609,0.835577008,1.274223685,0.3709158,-0.893448651,124.2675781,-14.03808594,2.380371094
3.78002,-0.035129805,-0.119376467,-0.912921097,-0.106531016,-0.624756703,0.827886578,1.14685452,0.416480839,-0.8508147,141.784668,-15.93017578,3.662109375
3.790029,-0.021706657,-0.152568246,-0.892908421,-0.106775156,-0.580933461,0.859014508,0.997635543,0.489758044,-0.94221133,162.902832,-17.76123047,5.493164063
3.800021,-0.009747851,-0.136704527,-0.900962351,-0.09652125,-0.548584828,0.88709068,0.850015283,0.540918827,-1.01388967,167.96875,-18.06640625,6.042480469
3.810029,-0.010480022,-0.197230741,-0.917070115,-0.088464609,-0.50232018,0.917486188,0.805516064,0.630983174,-1.36082387,156.8603516,-16.66259766,5.859375
3.820021,-0.011944367,-0.336343364,-0.848734052,-0.097864023,-0.482056508,0.932134625,0.747693717,0.637111843,-2.511941671,130.6762695,-13.73291016,4.638671875
3.83003,-0.063928564,-0.173557186,-0.886806947,-0.099084727,-0.4750985,0.935674664,0.506278694,0.601938725,-3.543684483,106.4453125,-11.16943359,3.662109375
3.84002,-0.03146895,0.022908918,-0.921219036,-0.097375742,-0.461182484,0.94959068,0.421810091,0.771142364,-3.620958805,88.80615234,-9.826660156,2.502441406
3.850021,0.037599257,-0.063731405,-0.866794271,-0.095056406,-0.453369984,0.950445172,0.369316995,0.960597217,-3.10188961,73.42529297,-8.605957031,1.647949219
3.86002,0.098369513,-0.047135516,-0.857031991,-0.094201914,-0.441040883,0.960821148,0.349598765,1.01495564,-2.188722849,60.79101563,-7.446289063,1.159667969
3.87002,0.143764167,-0.057874037,-0.856055762,-0.092248789,-0.432740102,0.963750836,0.345335364,0.927022934,-1.484995365,44.55566406,-6.103515625,0.305175781
3.88002,0.112524832,-0.159157797,-0.862157237,-0.093591563,-0.43591393,0.962530133,0.401292503,0.793258786,-1.263298512,25.390625,-4.577636719,-0.915527344
3.89002,0.105691229,-0.212606334,-0.899742018,-0.095666758,-0.438965688,0.961187359,0.348799407,0.616327703,-1.859908104,14.28222656,-3.723144531,-1.46484375
3.899999,0.096417056,-0.196010432,-0.933421887,-0.09639918,-0.437012563,0.963384625,0.359191418,0.481764168,-2.250542164,9.765625,-3.173828125,-1.647949219
3.91002,0.100077912,-0.258977216,-0.946112949,-0.09652125,-0.433960805,0.961919781,0.2669954,0.259800911,-2.794924974,9.765625,-3.173828125,-1.647949219
3.920001,0.143276053,-0.282162657,-0.882169912,-0.095788828,-0.429322133,0.963872906,0.170535982,-0.177730486,-3.735804081,-1.342773438,-1.159667969,-2.624511719
3.930021,0.103494716,-0.238476402,-0.876556552,-0.095300547,-0.432984242,0.963994977,0.04769678,-0.577157736,-4.410220623,-1.342773438,-1.159667969,-2.624511719
3.940029,0.114233237,-0.255560418,-0.849222166,-0.097497813,-0.446411977,0.956060406,-0.098857582,-0.759151578,-4.979650974,-20.87402344,-0.427246094,-2.990722656
3.95002,-0.008039452,-0.010526926,-0.986626414,-0.097375742,-0.449952016,0.958257672,-0.314692199,-0.468973964,-4.552511215,-20.87402344,-0.427246094,-2.990722656
3.96003,0.094220543,0.015343142,-0.939035247,-0.097253672,-0.449463734,0.957036969,-0.480698317,0.320554376,-2.962796211,-26.00097656,-0.244140625,-2.990722656
3.97002,0.201117616,-0.080815421,-0.863621579,-0.095422617,-0.43591393,0.960088727,-0.444192976,0.393032134,-2.540453196,-42.84667969,0.854492188,-3.540039063
3.980021,0.117650036,-0.005157669,-0.922439369,-0.098474375,-0.451905141,0.956914898,-0.483895868,0.381840736,-2.161543608,-53.7109375,1.098632813,-3.540039063
3.99002,0.102030374,0.032671208,-0.910724632,-0.103357188,-0.489380727,0.929204938,-0.552110255,0.663491547,-0.917963266,-42.66357422,-0.061035156,-3.601074219
4.00002,0.236505932,-0.052016662,-0.849954386,-0.099450938,-0.497071156,0.929082867,-0.520934165,0.646970928,-0.274989277,-27.34375,-1.159667969,-3.723144531
4.010021,0.173783205,-0.042498426,-0.878265,-0.10054957,-0.505982289,0.919561383,-0.611797869,0.433534473,-0.038637057,-7.507324219,-2.380371094,-2.990722656
4.02002,0.179884643,-0.022973846,-0.906331606,-0.10054957,-0.505982289,0.919561383,-0.67628181,0.411151588,0.368517607,-7.507324219,-2.380371094,-2.990722656
4.030022,0.142543882,0.018515887,-0.990043213,-0.10030543,-0.492066273,0.930425641,-0.597941756,0.367984682,0.753022969,25.32958984,-4.516601563,-1.708984375
4.040021,0.141811711,-0.084232219,-0.975399791,-0.10030543,-0.492066273,0.930425641,-0.564900458,0.591013789,1.377877474,25.32958984,-4.516601563,-1.708984375
4.050021,0.230160425,-0.250679277,-0.865329929,-0.10030543,-0.483399281,0.932867047,-0.619258761,0.626986206,0.993638575,33.32519531,-4.760742188,-0.671386719
4.06002,0.183301441,-0.226273551,-0.827501042,-0.10030543,-0.483399281,0.932867047,-0.8508147,0.453519166,0.426073521,48.76708984,-6.103515625,0.366210938
4.070014,0.225279285,-0.176241813,-0.82847727,-0.091272227,-0.43615807,0.960577008,-1.052793264,0.279252678,0.068747319,55.72509766,-6.652832031,0.610351563
4.080012,0.175247547,-0.053481004,-0.893640641,-0.091272227,-0.43615807,0.960577008,-1.144722819,0.063151613,-0.115111791,36.49902344,-4.638671875,-0.427246094
4.090014,0.125703923,0.00655708,-0.927564518,-0.094323984,-0.423828969,0.971075055,-1.205476284,0.156679943,0.317356825,2.258300781,-1.525878906,-2.075195313
4.10002,0.151085878,0.043409727,-0.95587523,-0.097131602,-0.454712758,0.952764508,-1.248110294,0.20570904,0.774872899,-25.26855469,0.854492188,-3.723144531
4.11002,0.210147737,0.032915265,-0.958071694,-0.103357188,-0.475952992,0.941045758,-1.243846774,0.363987744,1.291810036,-25.57373047,1.342773438,-4.211425781
4.120015,0.21991003,0.014366914,-0.93708279,-0.097741953,-0.484131703,0.937505719,-1.193218946,0.281384379,1.39519763,-8.972167969,-0.305175781,-4.028320313
4.130021,0.186962296,0.066351108,-0.914141431,-0.097619883,-0.467286,0.944585797,-1.158845425,0.235019907,1.612897396,9.155273438,-2.44140625,-2.44140625
4.140014,0.203314129,0.01998023,-0.807732472,-0.096765391,-0.449952016,0.95752525,-1.009093404,0.138826951,1.628618717,17.08984375,-3.356933594,-1.403808594
4.150014,0.192087506,0.022176745,-0.772588164,-0.098108164,-0.457276234,0.952764508,-0.885987759,0.008793262,1.558006048,11.23046875,-3.112792969,-1.770019531
4.160014,0.224547114,0.015587199,-0.788451919,-0.097375742,-0.448853383,0.956670758,-0.761283278,-0.088998467,1.528428793,10.00976563,-3.295898438,-2.014160156
4.17002,0.203802255,0.045118128,-0.816274419,-0.09639918,-0.440918813,0.959844586,-0.623788714,-0.198780999,1.447424173,4.577636719,-2.990722656,-2.44140625
4.180013,0.179152472,0.026325719,-0.825548586,-0.09652125,-0.444458852,0.957036969,-0.525197506,-0.208373666,1.63607955,-7.446289063,-1.892089844,-2.990722656
4.190019,0.197212703,0.006068966,-0.837995543,-0.097619883,-0.461060414,0.94568443,-0.429537535,-0.211038291,1.59984076,-18.06640625,-0.915527344,-3.662109375
4.200014,0.235773761,-0.019557048,-0.859472561,-0.099450938,-0.470826039,0.944463727,-0.299770296,-0.211038291,1.407454848,-16.84570313,-0.793457031,-3.540039063
4.21002,0.191355335,-0.029807449,-0.892908421,-0.1004275,-0.471680531,0.94202232,-0.220098019,-0.240882084,1.040535927,-6.958007813,-1.281738281,-2.990722656
4.22002,0.154258631,0.024617318,-0.923171492,-0.099084727,-0.467041859,0.945562359,-0.246477783,-0.171868294,1.025614142,2.44140625,-1.892089844,-2.44140625
4.230013,0.174515376,0.050731444,-0.922683378,-0.099084727,-0.463990102,0.948003766,-0.233154669,-0.139626339,1.124738097,7.995605469,-2.563476563,-2.136230469
4.240014,0.170610464,0.071964426,-0.913897325,-0.098840586,-0.465088734,0.945562359,-0.179862171,-0.15534763,1.256903529,11.35253906,-2.868652344,-2.014160156
4.25002,0.157675429,0.057565048,-0.891199973,-0.099695078,-0.461060414,0.948247906,-0.139093414,-0.14282389,1.473004699,17.578125,-3.356933594,-1.586914063
4.260014,0.156455144,-0.007354182,-0.853615192,-0.099206797,-0.453003773,0.951421734,-0.158012256,-0.132964775,1.616094947,24.96337891,-4.089355469,-1.098632813
4.270014,0.175979718,-0.041766255,-0.864109693,-0.095910898,-0.444336781,0.955816266,-0.218765706,-0.126036748,1.496719718,30.63964844,-4.516601563,-0.366210938
4.280014,0.142543882,0.005336795,-0.916826009,-0.099450938,-0.435181508,0.965581891,-0.240082696,-0.053026035,1.365087271,31.86035156,-4.577636719,0
4.29002,0.153038334,-0.000520579,-0.923415597,-0.094812266,-0.422974477,0.969976422,-0.274189889,0.077007659,1.428771853,19.40917969,-3.784179688,-1.403808594
4.30002,0.169146122,0.049511159,-0.938791141,-0.098108164,-0.435547719,0.962163922,-0.317356825,0.195583463,1.644872904,1.098632813,-2.258300781,-2.746582031
4.31002,0.183057384,0.04316567,-0.920486913,-0.099084727,-0.449341664,0.955938336,-0.334143966,0.269393563,1.941978574,-4.211425781,-1.708984375,-3.112792969
4.32002,0.198921102,0.065618937,-0.961976607,-0.099695078,-0.44763268,0.956914898,-0.404223561,0.295240432,2.346468687,3.845214844,-2.197265625,-2.746582031
4.330014,0.197700817,0.008753597,-0.96002415,-0.097864023,-0.443360219,0.957159039,-0.49029094,0.273390502,2.701396704,14.77050781,-2.9296875,-2.014160156
4.34002,0.156943258,-0.052016662,-0.931225422,-0.097131602,-0.437867055,0.959844586,-0.622456372,0.2648637,2.666490078,23.49853516,-3.479003906,-1.281738281
4.35002,0.176223775,-0.034444538,-0.888515395,-0.097619883,-0.432984242,0.96533775,-0.772208273,0.308297068,2.546581984,29.72412109,-4.211425781,-0.915527344
4.360021,0.258959178,-0.047379573,-0.822131788,-0.096887461,-0.425904164,0.968267438,-0.798588037,0.238217458,2.338474512,34.11865234,-4.8828125,-0.610351563
4.37002,0.238702445,-0.059094322,-0.811149271,-0.095544688,-0.418335805,0.97327232,-0.825500786,0.116177641,2.198315382,33.75244141,-4.943847656,-0.610351563
4.38002,0.200629501,-0.096435082,-0.818470981,-0.09652125,-0.409912953,0.974004742,-0.878526747,0.133764163,1.914799333,32.53173828,-4.8828125,-0.610351563
4.39002,0.239190559,-0.058606208,-0.87753278,-0.094690195,-0.399170766,0.983526227,-0.893448651,0.254205197,1.543883562,28.07617188,-4.150390625,-0.732421875
4.40002,0.22649957,0.056588818,-0.925123948,-0.093957773,-0.389649281,0.988409039,-0.864137828,0.259800911,1.325117946,16.17431641,-3.234863281,-1.647949219
4.410012,0.216737289,0.083435118,-0.939767369,-0.095056406,-0.398316273,0.984258648,-0.857209742,0.232088804,1.418113351,-2.502441406,-1.46484375,-2.868652344
4.42002,0.255054266,0.050731444,-0.933910001,-0.095910898,-0.411011586,0.977300641,-0.840955555,0.168404296,1.346168399,-13.12255859,-0.366210938,-3.601074219
4.43002,0.246024156,0.070011967,-0.933910001,-0.095666758,-0.419190297,0.970220563,-0.862805545,0.066082694,1.31206131,-10.98632813,-0.366210938,-3.845214844
4.440021,0.23138071,0.011926341,-0.885586711,-0.097131602,-0.418579945,0.972539898,-0.807381272,0.087666154,1.18735683,-2.868652344,-1.342773438,-3.356933594
4.45002,0.228452026,0.048290872,-0.850198394,-0.097009531,-0.414063344,0.974126813,-0.72824192,0.089264929,0.913699865,3.234863281,-1.953125,-2.685546875
4.46002,0.216249175,0.060981849,-0.866794271,-0.096032969,-0.409058461,0.975957867,-0.64403981,0.07087902,0.817240417,5.493164063,-2.197265625,-2.380371094
4.47002,0.213320479,0.0475587,-0.875580324,-0.096277109,-0.409668813,0.977422711,-0.544116378,0.085001536,0.611797869,4.39453125,-2.319335938,-2.44140625
4.48002,0.191111278,0.084411346,-0.875580324,-0.097375742,-0.411621938,0.975957867,-0.474036753,0.099923424,0.502548277,3.295898438,-2.197265625,-2.44140625
4.490021,0.189402866,0.088072204,-0.844829139,-0.096155039,-0.409790883,0.978155133,-0.457782537,0.120174579,0.636578858,4.150390625,-2.319335938,-2.44140625
4.500014,0.245291985,0.076113398,-0.854103306,-0.096277109,-0.405640492,0.979497906,-0.417813152,0.121240422,0.733837724,3.41796875,-2.319335938,-2.502441406
4.51002,0.26164383,0.085631631,-0.889247517,-0.097375742,-0.405274281,0.979253766,-0.334943324,0.087399691,0.727709055,-0.732421875,-2.136230469,-2.746582031
4.520021,0.254322095,0.040236982,-0.900230132,-0.096887461,-0.407227406,0.978155133,-0.250474721,0.150551304,0.662692189,-6.408691406,-1.708984375,-3.234863281
4.53002,0.230160425,-0.053969118,-0.892176299,-0.097253672,-0.415772328,0.97327232,-0.138826951,0.239549771,0.284581929,-10.49804688,-1.220703125,-3.662109375
4.540022,0.18256927,0.054880418,-0.895348991,-0.097375742,-0.423828969,0.966924664,-0.052759573,0.467108727,-0.32721591,-7.629394531,-1.037597656,-3.723144531
4.55002,0.238458388,0.054880418,-0.866794271,-0.096765391,-0.421997914,0.96912193,-0.083669223,0.509209812,-0.52466464,1.220703125,-1.953125,-3.295898438
4.56002,0.226987684,0.085631631,-0.860692894,-0.097497813,-0.415528188,0.973882672,-0.070079632,0.502548277,-0.561969399,9.765625,-2.807617188,-2.380371094
4.570021,0.242851415,0.118823422,-0.863377473,-0.097619883,-0.41272057,0.976079938,-0.05808882,0.512673795,-0.364520669,16.41845703,-3.479003906,-1.831054688
4.58002,0.270917996,0.134931198,-0.886806947,-0.097497813,-0.409424672,0.977788922,-0.043433387,0.424741209,-0.104186833,19.71435547,-3.845214844,-1.770019531
4.59002,0.248708783,0.131026279,-0.87582443,-0.097619883,-0.404541859,0.978765484,-0.10258805,0.313626319,0.247010723,20.93505859,-3.784179688,-1.525878906
4.600021,0.257006722,0.111257643,-0.874115982,-0.097741953,-0.399414906,0.980230328,-0.179329246,0.218499228,0.503081143,23.74267578,-4.028320313,-1.342773438
4.610022,0.275799137,0.117115017,-0.889247517,-0.094323984,-0.391724477,0.985235211,-0.209173039,0.184658498,0.684808552,25.69580078,-4.272460938,-1.342773438
4.620029,0.28043622,0.111013586,-0.877044666,-0.095422617,-0.386841664,0.986211773,-0.209705979,0.155081168,0.847883642,22.64404297,-4.089355469,-1.586914063
4.629995,0.29800835,0.096614209,-0.851174622,-0.09664332,-0.385865102,0.989019391,-0.20411025,0.05595712,1.009093404,17.21191406,-3.540039063,-2.014160156
4.640029,0.298496464,0.076845572,-0.856543876,-0.096155039,-0.388794789,0.986211773,-0.204376727,-0.119375192,1.090897441,15.01464844,-3.234863281,-2.136230469
4.650021,0.258715121,0.072940654,-0.894616869,-0.094934336,-0.387452016,0.989141461,-0.166006133,-0.223029092,1.02534759,17.39501953,-3.41796875,-1.892089844
4.660029,0.253833981,0.032183093,-0.897301447,-0.092615,-0.379761586,0.990728375,-0.137761101,-0.262199074,0.706125557,20.20263672,-3.723144531,-1.708984375
4.670021,0.253589924,0.06537488,-0.892664413,-0.094201914,-0.376831898,0.994756695,-0.136428788,-0.292309314,0.385837674,18.06640625,-3.479003906,-1.647949219
4.68003,0.271162053,0.065130823,-0.887783175,-0.093591563,-0.37732018,0.990850445,-0.126036748,-0.339473218,0.262199074,14.70947266,-3.295898438,-1.708984375
4.690021,0.265060628,0.083923232,-0.87582443,-0.095056406,-0.37365807,0.994146344,-0.151883617,-0.398627877,0.310162336,13.24462891,-3.112792969,-1.831054688
4.70002,0.268477426,0.096614209,-0.865574035,-0.095056406,-0.371460805,0.995855328,-0.185724348,-0.483895868,0.53079325,10.80322266,-2.868652344,-1.892089844
4.71002,0.284829271,0.107108673,-0.871675412,-0.093591563,-0.367188344,0.997320172,-0.151084229,-0.548646212,0.813243508,6.958007813,-2.563476563,-2.136230469
4.720022,0.278239707,0.102959698,-0.858008219,-0.094934336,-0.367188344,0.997198102,-0.130300149,-0.632049024,1.11674428,1.831054688,-2.319335938,-2.563476563
4.730022,0.262376001,0.088316261,-0.860692894,-0.093835703,-0.374024281,0.995367047,-0.151883617,-0.691470146,1.443427324,-2.380371094,-1.831054688,-2.807617188
4.740001,0.244559814,0.067327339,-0.863621579,-0.094201914,-0.375977406,0.99255943,-0.17506586,-0.678147018,1.620891333,-2.380371094,-1.831054688,-2.807617188
4.75002,0.217713517,0.060493735,-0.872895745,-0.09273707,-0.375367055,0.993902203,-0.208640128,-0.630983174,1.671785593,0.183105469,-2.380371094,-2.319335938
4.760001,0.215761049,0.053416074,-0.896569325,-0.094446055,-0.371582875,0.990850445,-0.182793275,-0.574759543,1.601173043,0.183105469,-2.380371094,-2.319335938
4.770021,0.190379094,0.053416074,-0.908772176,-0.094568125,-0.371704945,0.99670982,-0.107917301,-0.52146709,1.369350672,7.629394531,-2.685546875,-2.014160156
4.78003,0.158651657,0.042921612,-0.897545553,-0.095300547,-0.367310414,0.99658775,-0.05142726,-0.468174547,1.105552793,7.629394531,-2.685546875,-2.014160156
4.790021,0.173051034,0.035355837,-0.897301447,-0.096765391,-0.369019398,0.995611188,0.003730475,-0.353862166,0.836159289,5.004882813,-2.502441406,-2.136230469
4.80002,0.176223775,0.045362185,-0.898521781,-0.096765391,-0.367920766,0.994390484,0.043699846,-0.246477783,0.639509916,4.821777344,-2.563476563,-2.258300781
4.810021,0.191355335,0.029010348,-0.880949579,-0.095788828,-0.367798695,0.994756695,0.061286367,-0.197715163,0.468441039,5.432128906,-2.624511719,-2.197265625
4.82002,0.194039962,0.004604624,-0.876556552,-0.097009531,-0.371582875,0.995000836,0.072211333,-0.196915776,0.221163854,8.422851563,-2.868652344,-2.075195313
4.830021,0.185253897,0.029986578,-0.87997335,-0.09664332,-0.370484242,0.994756695,0.064217456,-0.189454809,-0.001598775,15.13671875,-3.479003906,-1.586914063
4.840021,0.204046312,0.040725097,-0.883878263,-0.095544688,-0.371338734,0.995855328,0.011191424,-0.209439516,-0.09272895,22.33886719,-4.028320313,-0.915527344
4.85002,0.215761049,0.057076934,-0.884122368,-0.095544688,-0.371338734,0.995855328,-0.081537522,-0.237950996,-0.016254211,22.33886719,-4.028320313,-0.915527344
4.860021,0.223082772,0.07977426,-0.908772176,-0.091760508,-0.350952992,1.003179547,-0.17506586,-0.303234309,0.105519146,21.91162109,-4.028320313,-0.854492188
4.87002,0.207951224,0.073184711,-0.915361667,-0.091760508,-0.350952992,1.003179547,-0.310428768,-0.387169987,0.212370604,21.91162109,-4.028320313,-0.854492188
4.88002,0.191355335,0.063422422,-0.920242807,-0.093225352,-0.348511586,1.005376813,-0.387969375,-0.416480839,0.258735061,10.80322266,-2.990722656,-1.708984375
4.890021,0.174271319,0.056832875,-0.918778465,-0.093225352,-0.348511586,1.005376813,-0.390367538,-0.376777947,0.277120978,9.643554688,-2.868652344,-1.770019531
4.90002,0.15352646,0.056344761,-0.922927483,-0.092615,-0.343384633,1.007452008,-0.351730466,-0.258468598,0.223562017,7.995605469,-2.685546875,-1.770019531
4.91002,0.16499714,0.067327339,-0.930005088,-0.092615,-0.343384633,1.007452008,-0.305632442,-0.106851459,0.149485439,4.211425781,-2.319335938,-2.014160156
4.920021,0.19745676,0.075625284,-0.935130334,-0.09652125,-0.347290883,1.010747906,-0.27738744,-0.031709034,0.116444103,-0.915527344,-1.953125,-2.44140625
4.93002,0.193795905,0.067327339,-0.928052632,-0.095666758,-0.349610219,1.003423688,-0.229957119,0.000532925,0.091130167,-3.601074219,-1.831054688,-2.807617188
4.94002,0.183057384,0.06805951,-0.925612062,-0.094323984,-0.349610219,1.005376813,-0.209705979,0.012523737,-0.040235836,-0.48828125,-2.136230469,-2.563476563
4.95002,0.173783205,0.064154594,-0.885830719,-0.095056406,-0.345337758,1.004766461,-0.254738122,-0.02797856,-0.154548228,2.502441406,-2.380371094,-2.380371094
4.960021,0.196724589,0.059029392,-0.884366377,-0.093835703,-0.347535023,1.006109234,-0.330147028,-0.075675346,-0.133764163,3.173828125,-2.380371094,-2.258300781
4.970013,0.206730939,0.071232255,-0.889735631,-0.093713633,-0.342652211,1.007207867,-0.332545161,-0.110315464,-0.077540584,3.723144531,-2.44140625,-2.258300781
4.98002,0.196968646,0.067327339,-0.880217456,-0.09249293,-0.340332875,1.006353375,-0.347467095,-0.167338446,0.011990812,1.403808594,-2.319335938,-2.380371094
4.990013,0.190135037,0.06976791,-0.87509221,-0.094079844,-0.345703969,1.005987164,-0.332278699,-0.203044415,0.079405814,-2.197265625,-1.831054688,-2.502441406
5.000015,0.167193665,0.069035738,-0.860448789,-0.093347422,-0.348755727,1.005132672,-0.321353763,-0.243280247,0.110581927,-3.540039063,-1.770019531,-2.502441406
5.01002,0.160360057,0.071720369,-0.868014605,-0.093713633,-0.350464711,1.005987164,-0.296839207,-0.279252678,0.115111791,-3.234863281,-1.770019531,-2.563476563
5.02002,0.158651657,0.088804375,-0.883634254,-0.093591563,-0.349732289,1.005254742,-0.21610108,-0.286180705,0.117243491,-2.563476563,-1.831054688,-2.380371094
5.030019,0.144496338,0.095637981,-0.877776886,-0.094079844,-0.348877797,1.00440025,-0.158012256,-0.300569683,0.137228176,-2.44140625,-1.831054688,-2.44140625
5.040022,0.138638957,0.092465234,-0.884854491,-0.094568125,-0.352906117,1.003911969,-0.172667682,-0.313359886,0.139359877,-3.41796875,-1.708984375,-2.502441406
5.050021,0.140835471,0.084411346,-0.880461464,-0.095056406,-0.354248891,1.00427818,-0.196116373,-0.343736589,0.051693719,-2.807617188,-1.770019531,-2.502441406
5.06002,0.139615186,0.087828147,-0.871431403,-0.093835703,-0.352417836,1.003057477,-0.172934145,-0.375978559,0.028511487,-1.281738281,-1.892089844,-2.502441406
5.07002,0.14352011,0.08758409,-0.87753278,-0.093835703,-0.352417836,1.004156109,-0.132165387,-0.38024193,0.090597242,-0.793457031,-2.014160156,-2.502441406
5.080021,0.146692851,0.089048435,-0.886562939,-0.093835703,-0.354737172,1.001714703,-0.08020521,-0.403157741,0.143090352,-1.770019531,-1.953125,-2.624511719
5.09002,0.134001874,0.089536549,-0.893640641,-0.095056406,-0.355591664,1.003423688,-0.071411945,-0.43113628,0.222762644,-1.159667969,-1.831054688,-2.502441406
5.100022,0.141567654,0.087095976,-0.923659606,-0.095178477,-0.356324086,1.002447125,-0.143090352,-0.426073521,0.312027574,1.46484375,-2.136230469,-2.380371094
5.110023,0.135222159,0.078553971,-0.934886229,-0.094690195,-0.35400475,1.004888531,-0.159078106,-0.383173048,0.319488525,3.845214844,-2.319335938,-2.380371094
5.12002,0.141323597,0.085143517,-0.942208036,-0.094812266,-0.351441273,1.005132672,-0.163075045,-0.358924955,0.248343036,4.211425781,-2.380371094,-2.319335938
5.130023,0.134489988,0.084655403,-0.941963931,-0.095178477,-0.350830922,1.003911969,-0.20570904,-0.349332303,0.162009194,2.319335938,-2.258300781,-2.502441406
5.140021,0.120822783,0.083191061,-0.930249194,-0.094201914,-0.356690297,1.000860211,-0.28777948,-0.328548223,0.098058186,1.403808594,-2.136230469,-2.502441406
5.15002,0.130829133,0.087095976,-0.915849781,-0.094201914,-0.353272328,1.003179547,-0.347200602,-0.283516079,0.058888208,4.516601563,-2.502441406,-2.44140625
5.160021,0.12594798,0.088804375,-0.90437915,-0.094690195,-0.349121938,1.004766461,-0.371715158,-0.239549771,0.061019909,6.8359375,-2.685546875,-2.319335938
5.170021,0.113012952,0.079042085,-0.880217456,-0.095056406,-0.347779164,1.005620953,-0.328814715,-0.19638285,-0.005062787,6.042480469,-2.563476563,-2.319335938
5.18002,0.100566032,0.074649056,-0.863865587,-0.094812266,-0.350952992,1.005254742,-0.248076573,-0.151084229,-0.087399691,4.211425781,-2.502441406,-2.380371094
5.19002,0.106179343,0.082702947,-0.873139754,-0.094079844,-0.350464711,1.006231305,-0.181194484,-0.079405814,-0.053558957,4.333496094,-2.502441406,-2.380371094
5.20002,0.108863977,0.086607862,-0.885586711,-0.094568125,-0.344361195,1.006841656,-0.126836136,0.003730475,-0.033840735,4.699707031,-2.44140625,-2.319335938
5.210021,0.113501066,0.097590437,-0.899009895,-0.093713633,-0.345093617,1.008550641,-0.099390499,0.075941809,-0.030643184,0.854492188,-2.136230469,-2.502441406
5.22002,0.121310897,0.111257643,-0.905599386,-0.094934336,-0.34997643,1.005865094,-0.126836136,0.07194487,-0.03011026,-3.967285156,-1.831054688,-2.746582031
5.23002,0.118382207,0.109549243,-0.919022571,-0.094690195,-0.355347523,1.002325055,-0.15428178,0.062085759,-0.042367533,-4.699707031,-1.708984375,-2.868652344
5.240021,0.125215809,0.105156211,-0.908772176,-0.094446055,-0.353760609,1.001836773,-0.118842266,0.086333841,-0.069280244,-1.037597656,-2.014160156,-2.624511719
5.250021,0.120578726,0.09490581,-0.881681798,-0.094812266,-0.349610219,1.004766461,-0.070079632,0.110848397,-0.047963247,1.46484375,-2.136230469,-2.44140625
5.26002,0.107399635,0.092709291,-0.865085921,-0.094323984,-0.349121938,1.002447125,-0.06261868,0.128701374,-0.096725874,-0.061035156,-2.075195313,-2.563476563
5.270023,0.115209465,0.098810722,-0.869478947,-0.095422617,-0.352417836,1.003911969,-0.079139359,0.131898925,-0.16573967,-2.44140625,-1.892089844,-2.624511719
5.28002,0.129120734,0.098566665,-0.862889359,-0.095178477,-0.354737172,1.003423688,-0.078073502,0.119375192,-0.166272581,-2.624511719,-1.953125,-2.746582031
5.290013,0.143031996,0.094661753,-0.854347412,-0.094446055,-0.356079945,1.002325055,-0.06261868,0.079672284,-0.114578865,-1.770019531,-2.075195313,-2.746582031
5.30002,0.135710273,0.101739413,-0.848245938,-0.094568125,-0.35412682,1.003301617,-0.066082694,0.032508422,-0.051693719,-0.183105469,-2.075195313,-2.563476563
5.310022,0.122775239,0.098810722,-0.84971028,-0.095910898,-0.355469594,1.003789898,-0.067947932,-0.028777948,0.015987748,1.159667969,-2.136230469,-2.502441406
5.320021,0.121799011,0.098322608,-0.873383859,-0.095056406,-0.355469594,1.003545758,-0.063418068,-0.018652374,0.086333841,1.647949219,-2.197265625,-2.44140625
5.33002,0.127656379,0.102227527,-0.898033667,-0.095666758,-0.35400475,1.002935406,-0.067415006,0.010658499,0.120174579,2.502441406,-2.319335938,-2.502441406
5.340021,0.133269703,0.108573015,-0.912432983,-0.094690195,-0.354615102,1.002569195,-0.079139359,0.016254211,0.123638593,3.723144531,-2.44140625,-2.502441406
5.35002,0.151329935,0.101495356,-0.933665992,-0.094568125,-0.354859242,1.002813336,-0.067415006,0.029310873,0.081271052,4.638671875,-2.563476563,-2.380371094
5.36002,0.142299825,0.106132445,-0.934886229,-0.095422617,-0.354859242,1.003301617,-0.079672284,0.015987748,-0.025313934,6.286621094,-2.685546875,-2.319335938
5.370022,0.126192037,0.109549243,-0.913653316,-0.094690195,-0.350342641,1.003911969,-0.119375192,0.019984685,-0.090597242,8.178710938,-2.807617188,-2.197265625
5.38002,0.137662729,0.102471584,-0.900718246,-0.094568125,-0.352417836,1.006719586,-0.147620216,0.042101074,-0.07194487,8.422851563,-2.807617188,-2.197265625
5.390021,0.133269703,0.097102323,-0.87997335,-0.093957773,-0.348023305,1.004156109,-0.147620216,0.036771823,-0.060753446,8.666992188,-2.868652344,-2.136230469
5.40002,0.139127072,0.094417696,-0.881437693,-0.092981211,-0.345093617,1.006841656,-0.122039817,0.011191424,-0.02158346,7.690429688,-2.807617188,-2.136230469
5.41002,0.160360057,0.095149867,-0.897789562,-0.093469492,-0.345948109,1.006963727,-0.071411945,0.006128637,-0.020251149,5.37109375,-2.624511719,-2.258300781
5.42002,0.157675429,0.090024664,-0.9060875,-0.092981211,-0.345215688,1.005620953,-0.105252676,-0.02904441,-0.015188362,2.807617188,-2.502441406,-2.380371094
5.43002,0.147913136,0.09490581,-0.913165202,-0.093469492,-0.347535023,1.006475445,-0.167604893,-0.078073502,-0.009326187,0.610351563,-2.258300781,-2.502441406
5.44002,0.146692851,0.092709291,-0.925123948,-0.094201914,-0.34997643,1.004766461,-0.224094957,-0.115111791,-0.045565084,0.549316406,-2.197265625,-2.44140625
5.450021,0.114721351,0.108817072,-0.92170715,-0.093469492,-0.34631432,1.006963727,-0.285914242,-0.134297088,-0.100189894,2.258300781,-2.258300781,-2.44140625
5.460029,0.12350741,0.107596787,-0.905843492,-0.093469492,-0.344849477,1.00818443,-0.314958632,-0.121240422,-0.131099537,1.953125,-2.197265625,-2.380371094
5.47002,0.138150843,0.113210105,-0.900718246,-0.093103281,-0.346436391,1.006475445,-0.285914242,-0.107117914,-0.138294026,-0.244140625,-2.075195313,-2.502441406
5.48003,0.126192037,0.119311536,-0.897789562,-0.094323984,-0.347168813,1.005376813,-0.280318528,-0.106052071,-0.075941809,-1.525878906,-2.075195313,-2.563476563
5.490021,0.119114384,0.111745757,-0.900962351,-0.094446055,-0.346924672,1.009283063,-0.267261863,-0.083935678,-0.01385605,-2.136230469,-1.953125,-2.563476563
5.50003,0.109108034,0.113454162,-0.910724632,-0.094690195,-0.347535023,1.006109234,-0.230490044,-0.030643184,-0.022116385,-4.516601563,-1.647949219,-2.685546875
5.51002,0.103494716,0.111257643,-0.904623158,-0.094323984,-0.348999867,1.00440025,-0.217966303,0.053825419,-0.031442571,-6.530761719,-1.46484375,-2.807617188
5.52003,0.125459866,0.105400268,-0.889735631,-0.094201914,-0.352661977,1.002569195,-0.180128634,0.118842266,-0.034906585,-7.080078125,-1.46484375,-2.807617188
5.530023,0.139371129,0.103935926,-0.897057439,-0.095666758,-0.355103383,1.002447125,-0.12230628,0.163874418,-0.050894335,-6.896972656,-1.46484375,-2.807617188
5.540022,0.134734045,0.111745757,-0.90926029,-0.094568125,-0.356568227,1.001592633,-0.106851459,0.194517612,-0.071411945,-6.164550781,-1.525878906,-2.868652344
5.55002,0.13351376,0.112721991,-0.895837105,-0.093957773,-0.356202016,1.002080914,-0.112713635,0.195583463,-0.108450226,-5.065917969,-1.586914063,-2.868652344
5.560021,0.133025646,0.090512778,-0.873139754,-0.095910898,-0.360108266,1.001104352,-0.135629401,0.154548228,-0.238483921,-4.455566406,-1.586914063,-2.868652344
5.57,0.134489988,0.103691869,-0.85776421,-0.095178477,-0.363282094,0.998296734,-0.186523736,0.100722812,-0.263797849,-4.455566406,-1.586914063,-2.868652344
5.580023,0.135222159,0.107840844,-0.863133465,-0.095178477,-0.36181725,0.999029156,-0.204909652,0.065549769,-0.212903515,1.159667969,-2.44140625,-2.44140625
5.59,0.138150843,0.114186333,-0.888515395,-0.095422617,-0.358887563,1.001348492,-0.168937206,0.083669223,-0.173200607,1.159667969,-2.44140625,-2.44140625
5.60002,0.132537532,0.132490628,-0.909992413,-0.094690195,-0.35400475,1.002202984,-0.157745793,0.110049009,-0.157745793,4.272460938,-2.44140625,-2.319335938
5.61003,0.134978102,0.140056401,-0.915117659,-0.095544688,-0.35388268,1.002813336,-0.193451747,0.110315464,-0.165473193,4.272460938,-2.44140625,-2.319335938
5.620022,0.131317247,0.137127711,-0.914141431,-0.095300547,-0.355225453,1.002935406,-0.237950996,0.116977029,-0.147353753,-0.366210938,-2.197265625,-2.746582031
5.630029,0.137174615,0.135907426,-0.898521781,-0.096155039,-0.357178578,1.000127789,-0.271525264,0.112713635,-0.109516084,0.793457031,-2.258300781,-2.624511719
5.640014,0.145472566,0.133222799,-0.895348991,-0.096277109,-0.360352406,0.999029156,-0.263531387,0.112180702,-0.08207044,2.9296875,-2.319335938,-2.502441406
5.65002,0.155478916,0.141032629,-0.884122368,-0.095788828,-0.358399281,1.001958844,-0.243813157,0.091130167,-0.060486984,4.150390625,-2.502441406,-2.44140625
5.66002,0.160848171,0.147378124,-0.895837105,-0.095178477,-0.355713734,1.001470563,-0.235819295,0.030643184,-0.021050537,4.333496094,-2.502441406,-2.319335938
5.67002,0.160116,0.148354352,-0.898277676,-0.095788828,-0.357178578,1.001470563,-0.24461256,-0.018918836,-0.001332312,4.638671875,-2.502441406,-2.258300781
5.68002,0.159383829,0.140300458,-0.889003509,-0.095788828,-0.357178578,1.001470563,-0.240082696,-0.071678407,-0.012257273,4.638671875,-2.502441406,-2.258300781
5.690021,0.159139772,0.128341652,-0.886806947,-0.095300547,-0.351685414,1.001348492,-0.240615621,-0.122572735,-0.001865237,0.427246094,-2.197265625,-2.563476563
5.70002,0.159139772,0.1315144,-0.889735631,-0.095300547,-0.351685414,1.001348492,-0.219298616,-0.145488501,-0.010658499,0.427246094,-2.197265625,-2.563476563
5.710021,0.159139772,0.142985086,-0.888515395,-0.095178477,-0.354737172,1.003301617,-0.211038291,-0.17346707,0.022915773,-4.028320313,-1.770019531,-2.746582031
5.720021,0.1401033,0.145181599,-0.889979737,-0.095178477,-0.354737172,1.003301617,-0.207574263,-0.198780999,0.078872897,-5.676269531,-1.586914063,-2.868652344
5.730014,0.127412322,0.136639597,-0.891199973,-0.094568125,-0.359986195,0.999395367,-0.214768767,-0.175865233,0.126036748,-5.676269531,-1.647949219,-2.868652344
5.74002,0.130585076,0.129561937,-0.891932193,-0.095666758,-0.363160023,0.999517438,-0.1931853,-0.127102599,0.130300149,-4.39453125,-1.708984375,-2.807617188
5.750014,0.132781589,0.126389196,-0.890467851,-0.094568125,-0.362427602,0.999639508,-0.156946406,-0.073810108,0.115644716,-3.051757813,-1.770019531,-2.746582031
5.76002,0.139127072,0.132002514,-0.895837105,-0.095666758,-0.362549672,0.997808453,-0.132698312,-0.014388974,0.104719758,-1.831054688,-1.892089844,-2.685546875
5.770014,0.140347357,0.138836116,-0.902670702,-0.09639918,-0.363648305,0.999517438,-0.119641654,0.02158346,0.09033078,-1.098632813,-2.014160156,-2.563476563
5.780019,0.137174615,0.13639554,-0.895593097,-0.095788828,-0.364502797,0.998662945,-0.127369061,0.015721286,0.034107197,-0.915527344,-2.014160156,-2.563476563
5.790014,0.134245931,0.140056401,-0.891199973,-0.094568125,-0.362793813,0.996099469,-0.13456355,-0.007727412,-0.034906585,-0.061035156,-2.136230469,-2.624511719
5.80002,0.13351376,0.147134067,-0.886318833,-0.095300547,-0.363282094,0.997686383,-0.138294026,-0.009592649,-0.062085759,1.098632813,-2.136230469,-2.563476563
5.810019,0.143276053,0.154699835,-0.884854491,-0.095666758,-0.362915883,0.995611188,-0.166539043,-0.035705972,-0.040235836,1.831054688,-2.319335938,-2.502441406
5.82002,0.1401033,0.152259265,-0.882169912,-0.095910898,-0.365235219,0.999029156,-0.172667682,-0.070346095,0.000266462,2.502441406,-2.319335938,-2.44140625
5.830013,0.12594798,0.15347955,-0.882902035,-0.09639918,-0.363282094,0.996221539,-0.184392035,-0.077274114,0.046364475,3.784179688,-2.44140625,-2.502441406
5.840019,0.126192037,0.145181599,-0.877044666,-0.094812266,-0.36169518,0.999761578,-0.192918837,-0.101255737,0.021849923,4.577636719,-2.502441406,-2.44140625
5.850021,0.127656379,0.150550865,-0.876068438,-0.095788828,-0.36193932,1.00037193,-0.212637067,-0.127369061,0.009592649,3.051757813,-2.319335938,-2.380371094
5.860019,0.134978102,0.152015208,-0.886318833,-0.095056406,-0.362549672,0.997198102,-0.227825418,-0.138027564,0.028511487,0.9765625,-2.319335938,-2.502441406
5.870014,0.143031996,0.154211721,-0.900962351,-0.095178477,-0.360962758,0.998907086,-0.22542727,-0.12337213,0.063684531,0.305175781,-2.197265625,-2.563476563
5.880021,0.141323597,0.150550865,-0.897057439,-0.094934336,-0.360352406,1.000982281,-0.24514547,-0.120174579,0.079672284,-0.671386719,-2.136230469,-2.502441406
5.890013,0.140835471,0.156408234,-0.897545553,-0.094446055,-0.363037953,1.000982281,-0.280052066,-0.138027564,0.08233691,-2.685546875,-2.014160156,-2.746582031
5.90002,0.151329935,0.162265615,-0.912921097,-0.094446055,-0.362793813,0.997686383,-0.274189889,-0.143623278,0.074076563,-3.479003906,-1.831054688,-2.746582031
5.910014,0.154014574,0.170319496,-0.902914808,-0.095544688,-0.365113148,0.997930523,-0.269127101,-0.162275642,0.090863705,-2.990722656,-1.770019531,-2.685546875
5.92002,0.142787939,0.164462128,-0.894372763,-0.096032969,-0.368042836,0.99670982,-0.270459414,-0.196649313,0.108450226,-1.892089844,-1.892089844,-2.685546875
5.930021,0.135466216,0.155432006,-0.899986123,-0.095788828,-0.368286977,0.999151227,-0.229690656,-0.173200607,0.091396637,0.854492188,-2.197265625,-2.563476563
5.94002,0.124483638,0.142741029,-0.888271289,-0.095422617,-0.362305531,0.998907086,-0.170535982,-0.108983152,0.061019909,3.662109375,-2.44140625,-2.380371094
5.950019,0.116185693,0.145425656,-0.880461464,-0.097375742,-0.363037953,1.001226422,-0.1334977,-0.063950993,0.023182238,3.112792969,-2.380371094,-2.44140625
5.960021,0.112036718,0.152503322,-0.876800658,-0.097986094,-0.363160023,0.997686383,-0.115644716,-0.022915773,0.015721286,-0.48828125,-2.136230469,-2.624511719
5.97002,0.110328319,0.155187949,-0.88070557,-0.096277109,-0.367066273,0.994512555,-0.105519146,0.004529862,0.019718224,-3.479003906,-1.892089844,-2.868652344
5.980014,0.114233237,0.160801272,-0.893640641,-0.097619883,-0.368531117,0.995244977,-0.10178867,0.034906585,0.000266462,-4.638671875,-1.770019531,-2.807617188
5.990014,0.123995524,0.17080761,-0.894616869,-0.097253672,-0.368897328,0.997320172,-0.091929555,0.07087902,-0.018385911,-5.310058594,-1.708984375,-2.9296875
6.000014,0.130585076,0.168122983,-0.882658026,-0.096277109,-0.369995961,0.994878766,-0.075675346,0.073543645,-0.018918836,-6.34765625,-1.586914063,-2.990722656
6.010021,0.1401033,0.165682413,-0.875336316,-0.097131602,-0.374878773,0.994390484,-0.038637057,0.048229709,-0.005062787,-6.408691406,-1.586914063,-2.9296875
6.020022,0.13107319,0.166658641,-0.868258613,-0.096765391,-0.377076039,0.993780133,-0.025580399,0.018918836,0.043433387,-3.784179688,-1.831054688,-2.868652344
6.03002,0.123995524,0.160557215,-0.874848202,-0.096277109,-0.375855336,0.993413922,-0.034107197,0.011990812,0.100989282,0.366210938,-2.136230469,-2.746582031
6.040014,0.113257009,0.153723607,-0.879485236,-0.095544688,-0.374024281,0.99255943,-0.023448698,0.073810108,0.119375192,4.699707031,-2.44140625,-2.502441406
6.050014,0.108131806,0.15347955,-0.884610482,-0.09639918,-0.371827016,0.993413922,-0.014921899,0.126303226,0.091663092,8.30078125,-2.868652344,-2.258300781
6.06002,0.110328319,0.159092861,-0.885586711,-0.098230234,-0.370972523,0.99670982,-0.04769678,0.154548228,0.02904441,9.27734375,-2.9296875,-2.258300781
6.07002,0.125215809,0.162509672,-0.890223745,-0.09652125,-0.366577992,0.995855328,-0.110315464,0.148686066,-0.02797856,8.972167969,-2.990722656,-2.136230469
6.08002,0.126436094,0.161045329,-0.885830719,-0.09652125,-0.365967641,0.996343609,-0.151084229,0.129500762,-0.093261868,7.934570313,-2.868652344,-2.258300781
6.090021,0.136686501,0.1617775,-0.881681798,-0.095666758,-0.364624867,0.999273297,-0.166539043,0.110848397,-0.123105668,6.652832031,-2.746582031,-2.319335938
6.100014,0.151085878,0.165194299,-0.878020894,-0.094812266,-0.363160023,0.997808453,-0.13456355,0.107384384,-0.093261868,5.249023438,-2.685546875,-2.44140625
6.110021,0.159871943,0.171295724,-0.879729342,-0.094446055,-0.363648305,0.999151227,-0.098857582,0.081803977,-0.040502299,3.967285156,-2.44140625,-2.44140625
6.120021,0.164753083,0.175688763,-0.884366377,-0.094079844,-0.363160023,0.999883648,-0.088998467,0.033574272,0.002664625,2.807617188,-2.319335938,-2.44140625
6.130023,0.153770517,0.168855154,-0.884854491,-0.095666758,-0.364502797,0.998785016,-0.078606427,-0.008793262,0.034906585,1.525878906,-2.258300781,-2.44140625
6.14002,0.149621536,0.164706185,-0.891932193,-0.096155039,-0.36560143,0.996221539,-0.065549769,-0.029577335,0.059154671,0.793457031,-2.258300781,-2.624511719
6.150021,0.143031996,0.169831382,-0.888515395,-0.097253672,-0.367554555,0.995489117,-0.053026035,-0.03757121,0.069280244,0.244140625,-2.258300781,-2.685546875
6.160021,0.138638957,0.1617775,-0.886074825,-0.095788828,-0.3657235,0.995122906,-0.058355279,-0.055690661,0.084202148,0.732421875,-2.319335938,-2.563476563
6.170021,0.131317247,0.164706185,-0.886074825,-0.097864023,-0.366944203,0.99646568,-0.084202148,-0.045831546,0.087399691,0.793457031,-2.258300781,-2.624511719
6.18002,0.123995524,0.155676063,-0.879241228,-0.09639918,-0.368409047,0.996099469,-0.116444103,-0.045298621,0.065816231,0.732421875,-2.258300781,-2.624511719
6.19002,0.129364791,0.163974014,-0.886318833,-0.095056406,-0.367798695,0.99670982,-0.134297088,-0.024781011,0.070079632,2.014160156,-2.380371094,-2.502441406
6.200021,0.134001874,0.166414584,-0.892664413,-0.093469492,-0.364746938,1.00061607,-0.130300149,0.004796324,0.099923424,4.028320313,-2.44140625,-2.380371094
6.210023,0.141323597,0.167878926,-0.895837105,-0.093713633,-0.362549672,1.000738141,-0.127102599,-0.001598775,0.104986221,3.967285156,-2.502441406,-2.44140625
6.22002,0.144008224,0.172271965,-0.890955965,-0.092370859,-0.357911,0.999029156,-0.148686066,-0.032241959,0.094327718,1.220703125,-2.319335938,-2.624511719
6.23002,0.149865593,0.163974014,-0.888271289,-0.094568125,-0.366700063,0.998662945,-0.16520673,-0.058355279,0.111381322,-1.892089844,-1.953125,-2.685546875
6.240023,0.143031996,0.155676063,-0.886318833,-0.09652125,-0.370850453,0.995733258,-0.170802444,-0.091663092,0.104186833,-1.831054688,-2.075195313,-2.685546875
6.250021,0.130096962,0.156164177,-0.878997122,-0.097619883,-0.367066273,0.994878766,-0.168137819,-0.095926493,0.080471672,0.549316406,-2.197265625,-2.685546875
6.260021,0.137662729,0.15347955,-0.880461464,-0.096155039,-0.36584557,0.997320172,-0.146287903,-0.066082694,0.052226644,2.380371094,-2.319335938,-2.502441406
6.270014,0.133025646,0.157140405,-0.878509008,-0.09652125,-0.369141469,0.997930523,-0.138826951,-0.053026035,0.037038282,3.112792969,-2.44140625,-2.44140625
6.280014,0.130096962,0.1634859,-0.886562939,-0.095910898,-0.366211781,0.998540875,-0.125770286,-0.041568145,0.031176111,3.784179688,-2.502441406,-2.44140625
6.290014,0.127656379,0.165682413,-0.885830719,-0.095788828,-0.362793813,0.998052594,-0.115644716,-0.025047474,0.030643184,3.601074219,-2.502441406,-2.502441406
6.300023,0.124239581,0.16592647,-0.885342605,-0.096155039,-0.364136586,0.997320172,-0.109249614,-0.026113322,0.002931087,2.075195313,-2.380371094,-2.563476563
6.310019,0.123995524,0.171539781,-0.882902035,-0.096155039,-0.366577992,0.997564313,-0.118575804,-0.020784073,-0.024514547,0.915527344,-2.258300781,-2.502441406
6.32002,0.133025646,0.17349225,-0.886562939,-0.096887461,-0.367432484,0.99658775,-0.136162326,-0.021849923,-0.02904441,1.770019531,-2.380371094,-2.563476563
6.330014,0.134978102,0.176176877,-0.886806947,-0.09664332,-0.364746938,0.994024273,-0.151617154,-0.030643184,0.001865237,2.990722656,-2.44140625,-2.44140625
6.340028,0.137418672,0.174224421,-0.890955965,-0.096277109,-0.363160023,0.997564313,-0.153748855,-0.038637057,0.03996937,3.662109375,-2.502441406,-2.44140625
6.35002,0.142299825,0.173248193,-0.890955965,-0.094934336,-0.362427602,0.999029156,-0.125503823,-0.036238898,0.06981317,3.356933594,-2.502441406,-2.44140625
6.36002,0.149133422,0.173248193,-0.884366377,-0.094934336,-0.362793813,0.998785016,-0.09272895,-0.023715161,0.095926493,2.380371094,-2.380371094,-2.563476563
6.37002,0.149133422,0.171539781,-0.881193684,-0.096765391,-0.366944203,0.997442242,-0.059154671,-0.031176111,0.122039817,2.136230469,-2.380371094,-2.563476563
6.38002,0.144252281,0.168611097,-0.889003509,-0.09652125,-0.363648305,0.998418805,-0.036238898,-0.021316998,0.155880541,3.112792969,-2.44140625,-2.44140625
6.39002,0.14840125,0.164218071,-0.890467851,-0.096032969,-0.362915883,1.000494,-0.016254211,-0.003464012,0.173733547,4.028320313,-2.563476563,-2.380371094
6.40002,0.147913136,0.155432006,-0.889003509,-0.096032969,-0.36193932,1.000494,0.005595712,-0.003464012,0.161209792,4.028320313,-2.563476563,-2.380371094
6.41,0.136930558,0.15836069,-0.890223745,-0.096032969,-0.360108266,0.998907086,0.005329249,-0.011990812,0.129234299,3.845214844,-2.502441406,-2.563476563
6.420019,0.134978102,0.154455778,-0.891688087,-0.097497813,-0.363160023,0.998174664,-0.006128637,-0.005329249,0.104719758,3.845214844,-2.502441406,-2.563476563
6.43,0.129120734,0.15933693,-0.894128755,-0.097131602,-0.363648305,0.99658775,-0.028777948,-0.007194487,0.051160797,4.8828125,-2.563476563,-2.380371094
6.440021,0.134489988,0.155187949,-0.896325219,-0.096277109,-0.360962758,0.999517438,-0.056223582,0.002398162,0.026646247,4.8828125,-2.563476563,-2.380371094
6.450029,0.141811711,0.159580987,-0.903891036,-0.095422617,-0.361573109,0.999517438,-0.069280244,0.029843798,0.019984685,5.004882813,-2.563476563,-2.258300781
6.460021,0.146204737,0.158604747,-0.902914808,-0.09652125,-0.363892445,0.998418805,-0.07274425,0.043966308,0.0063951,6.103515625,-2.685546875,-2.258300781
6.47002,0.1383949,0.15933693,-0.893640641,-0.095178477,-0.360230336,1.00037193,-0.074343033,0.043699846,-0.0063951,6.774902344,-2.807617188,-2.197265625
6.480014,0.132049418,0.159825044,-0.887295061,-0.094934336,-0.358887563,1.001592633,-0.089797854,0.050627869,-0.019451762,6.34765625,-2.746582031,-2.197265625
6.490021,0.134245931,0.162265615,-0.886806947,-0.094690195,-0.356446156,1.002080914,-0.100989282,0.05808882,-0.026379786,5.249023438,-2.624511719,-2.319335938
6.50002,0.136686501,0.157140405,-0.87582443,-0.094323984,-0.355591664,1.002691266,-0.107917301,0.066349156,-0.04769678,4.028320313,-2.624511719,-2.380371094
6.51002,0.144740395,0.155432006,-0.875580324,-0.094323984,-0.355591664,1.002691266,-0.127369061,0.050094947,-0.066882081,4.028320313,-2.624511719,-2.380371094
6.520021,0.146692851,0.162997786,-0.881437693,-0.094934336,-0.355225453,1.001104352,-0.152416542,-0.015188362,-0.098058186,2.502441406,-2.380371094,-2.44140625
6.530019,0.133025646,0.166658641,-0.881193684,-0.094934336,-0.355225453,1.001104352,-0.189188361,-0.043966308,-0.082603365,2.502441406,-2.380371094,-2.44140625
6.540014,0.138150843,0.167146755,-0.885586711,-0.095544688,-0.354248891,1.003789898,-0.221430331,-0.043433387,-0.055157732,1.770019531,-2.380371094,-2.44140625
6.550023,0.135222159,0.17080761,-0.889491623,-0.095544688,-0.354248891,1.003789898,-0.254738122,-0.042633995,-0.022382848,0.549316406,-2.258300781,-2.502441406
6.56002,0.136198387,0.17178385,-0.890467851,-0.095178477,-0.356568227,1.001226422,-0.311228186,-0.061819296,-0.021316998,-0.549316406,-2.197265625,-2.624511719
6.570014,0.143764167,0.171295724,-0.895593097,-0.095300547,-0.356202016,1.001348492,-0.36878407,-0.10178867,-0.026646247,-0.244140625,-2.075195313,-2.563476563
6.58002,0.145472566,0.180081789,-0.907063728,-0.095910898,-0.357544789,1.000494,-0.44152835,-0.147087291,-0.035173047,0.427246094,-2.136230469,-2.563476563
6.59002,0.149377479,0.178129333,-0.91170086,-0.09639918,-0.35803307,0.998785016,-0.497218996,-0.172667682,-0.043433387,1.403808594,-2.258300781,-2.502441406
6.600021,0.158895715,0.163729957,-0.915849781,-0.095178477,-0.359375844,1.00061607,-0.502015293,-0.17346707,-0.094860643,2.685546875,-2.380371094,-2.44140625
6.61002,0.145716623,0.175688763,-0.887295061,-0.094812266,-0.361206898,0.999639508,-0.506811619,-0.155880541,-0.1334977,4.333496094,-2.502441406,-2.197265625
6.62002,0.150841821,0.183742644,-0.876068438,-0.094568125,-0.352661977,1.002813336,-0.505212903,-0.16573967,-0.131632462,7.995605469,-2.624511719,-1.831054688
6.63002,0.14840125,0.187403512,-0.876556552,-0.095056406,-0.346924672,1.0083065,-0.453252673,-0.160676882,-0.074343033,5.37109375,-2.502441406,-1.831054688
6.640021,0.139859243,0.184230771,-0.873383859,-0.094079844,-0.348389516,1.005376813,-0.385304749,-0.156413481,-0.015721286,-3.662109375,-1.831054688,-2.44140625
6.650022,0.134978102,0.194725223,-0.888271289,-0.094812266,-0.353760609,1.003179547,-0.324284822,-0.166539043,0.00319755,-12.08496094,-1.098632813,-2.9296875
6.66002,0.121554954,0.210588953,-0.894860877,-0.093957773,-0.358765492,1.000860211,-0.320021451,-0.146554366,0.03757121,-16.78466797,-0.610351563,-3.051757813
6.67002,0.120578726,0.199606375,-0.887295061,-0.093469492,-0.361206898,1.000005719,-0.305366009,-0.113513015,0.055157732,-19.28710938,-0.366210938,-3.295898438
6.680012,0.132293475,0.198874204,-0.883390149,-0.094690195,-0.368409047,0.995733258,-0.23422052,-0.064217456,0.084468603,-21.30126953,-0.183105469,-3.41796875
6.69002,0.138883015,0.201070717,-0.876068438,-0.097253672,-0.375855336,0.993658063,-0.124171518,-0.033574272,0.130300149,-20.93505859,-0.305175781,-3.479003906
6.70002,0.133757817,0.199118261,-0.871919517,-0.100183359,-0.381958852,0.990362164,-0.045565084,-0.019984685,0.193984687,-18.24951172,-0.427246094,-3.356933594
6.710013,0.131805361,0.203511287,-0.88070557,-0.101526133,-0.386719594,0.98877525,-0.022116385,-0.021050537,0.21450229,-13.06152344,-0.854492188,-3.173828125
6.720021,0.125215809,0.199850432,-0.886562939,-0.10054957,-0.391236195,0.987554547,-0.029577335,-0.027712099,0.215834603,-6.225585938,-1.586914063,-2.9296875
6.730021,0.124971752,0.198142033,-0.892908421,-0.099573008,-0.389893422,0.984380719,-0.049828485,-0.005862175,0.233154669,2.685546875,-2.258300781,-2.502441406
6.74002,0.122531182,0.191308424,-0.889003509,-0.098718516,-0.380249867,0.992315289,-0.05489127,0.011724349,0.219565079,11.77978516,-2.9296875,-1.953125
6.75002,0.115453522,0.191552481,-0.887783175,-0.097619883,-0.375855336,0.993780133,-0.07087902,0.041301683,0.201445624,14.77050781,-3.356933594,-1.831054688
6.760021,0.111548604,0.186915398,-0.886318833,-0.09652125,-0.372559438,0.994024273,-0.077807046,0.077007659,0.137228176,14.70947266,-3.479003906,-1.892089844
6.77002,0.114233237,0.190332196,-0.882169912,-0.095910898,-0.370728383,0.994756695,-0.105785601,0.112713635,0.099923424,14.52636719,-3.479003906,-2.014160156
6.780021,0.124483638,0.200338546,-0.887539167,-0.097375742,-0.370362172,0.995855328,-0.149751917,0.135096475,0.07274425,14.95361328,-3.540039063,-2.014160156
6.79002,0.123751467,0.190576253,-0.882902035,-0.095666758,-0.363282094,0.997442242,-0.226493105,0.129234299,0.028245023,15.19775391,-3.540039063,-1.831054688
6.80002,0.110084262,0.173004136,-0.876800658,-0.095422617,-0.367920766,0.999395367,-0.332278699,0.124704443,-0.074609496,14.6484375,-3.601074219,-1.831054688
6.810021,0.073475672,0.117359074,-0.835554973,-0.095666758,-0.360596547,0.995489117,-0.507611036,0.22489433,-0.116177641,18.85986328,-3.723144531,-1.342773438
6.82002,0.123263353,0.156896348,-0.870699184,-0.094690195,-0.366577992,0.991460797,-0.680811644,0.364254236,-0.033574272,27.28271484,-4.150390625,-0.061035156
6.83002,0.134489988,0.165682413,-0.897789562,-0.09639918,-0.314698109,1.027471539,-0.763148487,0.451120973,0.018385911,29.54101563,-4.516601563,0.610351563
6.840021,0.146936908,0.181058017,-0.888759403,-0.095422617,-0.329712758,1.010869977,-0.808447123,0.545182228,0.029843798,-1.586914063,-2.197265625,-2.136230469
6.85002,0.1584076,0.164706185,-0.859228552,-0.09664332,-0.345093617,1.0083065,-0.816973984,0.58275342,-0.114312403,-30.45654297,0.793457031,-3.845214844
6.86002,0.168902064,0.192772766,-0.869967061,-0.098962656,-0.374756703,0.990484234,-0.882257283,0.590747297,-0.224361405,-44.25048828,2.075195313,-4.760742188
6.870023,0.168902064,0.217178493,-0.889247517,-0.102014414,-0.392212758,0.981206891,-1.00456357,0.565966308,-0.266462475,-37.109375,1.46484375,-4.516601563
6.880022,0.179396529,0.232798154,-0.902670702,-0.098108164,-0.381836781,0.989019391,-1.138860583,0.540119469,-0.377843797,-19.95849609,-0.061035156,-3.479003906
6.890021,0.196236475,0.253543037,-0.910480527,-0.093957773,-0.376831898,0.99280357,-1.252640128,0.495087296,-0.576091886,-11.90185547,-0.793457031,-2.9296875
6.90002,0.216249175,0.273555713,-0.902426694,-0.093957773,-0.376831898,0.993413922,-1.31099534,0.336808592,-0.99523735,-13.24462891,-0.671386719,-2.990722656
6.91002,0.196480532,0.275996283,-0.835554973,-0.09652125,-0.384400258,0.991582867,-1.376545191,0.107384384,-1.309929609,-17.70019531,0,-2.990722656
6.92002,0.159139772,0.27379977,-0.779665866,-0.098596445,-0.393799672,0.981939313,-1.470073462,-0.236885145,-1.503914237,-19.22607422,0.122070313,-3.173828125
6.93002,0.125703923,0.268186459,-0.76477834,-0.100061289,-0.395752797,0.982061383,-1.682444096,-0.595543683,-1.506845236,-15.19775391,-0.183105469,-2.9296875
6.94002,0.093732423,0.25744795,-0.744765664,-0.099939219,-0.399903188,0.979253766,-2.074943304,-0.931552827,-1.324851394,-9.948730469,-0.793457031,-2.502441406
6.95002,-0.001205847,0.273555713,-0.801630998,-0.098108164,-0.396241078,0.985479352,-2.539120913,-1.017620206,-0.855344534,-5.065917969,-1.037597656,-1.770019531
6.96002,0.037843314,0.265745888,-0.843852911,-0.089319102,-0.347535023,0.985601422,-3.044333696,-0.456183791,-0.047963247,-7.32421875,-0.244140625,-1.403808594
6.97002,0.038575485,0.387286406,-0.781374217,-0.094812266,-0.363160023,1.042242047,-3.618560553,-0.187323123,0.354395092,-46.38671875,4.211425781,-2.990722656
6.980019,0.090315625,0.46538475,-0.821643674,-0.112756602,-0.402344594,0.968755719,-4.18772459,-0.066882081,0.532392025,-90.75927734,7.446289063,-7.202148438
6.99002,0.135466216,0.522494141,-0.814810077,-0.099450938,-0.412232289,0.96533775,-4.583154678,0.001865237,0.547047496,-97.29003906,7.385253906,-11.53564453
7.000014,0.183057384,0.540066247,-0.848001929,-0.084436289,-0.405030141,0.984136578,-4.616196156,0.121773355,0.031709034,-106.9335938,11.77978516,-12.57324219
7.010014,0.150597764,0.570329366,-0.795529621,-0.092004648,-0.427246938,0.974981305,-4.543718338,0.29497394,-0.352529854,-107.9711914,15.44189453,-12.63427734
7.020019,0.120334669,0.594002897,-0.722312418,-0.106531016,-0.464234242,0.944463727,-4.547981262,0.467908114,-0.460713625,-94.05517578,16.23535156,-13.24462891
7.03002,0.098857627,0.618652705,-0.646410587,-0.116296641,-0.492066273,0.928716656,-4.4885602,0.642707527,-0.386370599,-79.83398438,17.15087891,-14.46533203
7.040014,0.103006602,0.628659043,-0.641529447,-0.101892344,-0.505371938,0.919317242,-4.380376816,0.837225139,-0.166006133,-70.98388672,16.72363281,-16.17431641
7.05002,0.12838855,0.682595693,-0.61834403,-0.114343516,-0.52966393,0.903692242,-4.160545349,1.001632452,0.013056661,-66.65039063,14.22119141,-16.78466797
7.060014,0.1401033,0.69919157,-0.562454875,-0.118860117,-0.544068227,0.886724469,-3.81973958,1.043200612,-0.106052071,-74.64599609,13.54980469,-16.90673828
7.070014,0.152306163,0.705537053,-0.532191805,-0.11617457,-0.550415883,0.884160992,-3.454952478,0.97551918,-0.442061275,-89.29443359,13.54980469,-17.578125
7.080021,0.155234859,0.723597321,-0.521453296,-0.108972422,-0.552613148,0.882940289,-3.22552824,1.006961703,-0.705859125,-101.9287109,13.73291016,-18.12744141
7.090014,0.134245931,0.784855681,-0.559038077,-0.114465586,-0.583741078,0.868535992,-3.178364515,1.284082651,-0.718915761,-104.9804688,12.75634766,-15.74707031
7.100013,0.169390179,0.778266142,-0.520233011,-0.115442148,-0.599854359,0.844610211,-3.221264839,1.684042811,-0.376511484,-102.1728516,13.06152344,-13.61083984
7.110021,0.213564536,0.773385001,-0.410407205,-0.126672617,-0.621827016,0.819097516,-3.427240372,1.87616241,-0.120441042,-97.96142578,14.89257813,-13.30566406
7.12002,0.20502254,0.763134558,-0.380876306,-0.126794688,-0.633301625,0.810308453,-3.617228031,1.880958676,-0.124171518,-96.49658203,17.82226563,-16.05224609
7.130023,0.231136653,0.700899969,-0.393323214,-0.118493906,-0.646729359,0.801885602,-3.712088823,2.153283358,-0.038370594,-101.8676758,18.73779297,-17.27294922
7.140019,0.329979844,0.681375408,-0.223703415,-0.119104258,-0.668579945,0.78162193,-3.655332327,2.078140974,-0.889718235,-106.8725586,18.67675781,-16.90673828
7.150023,0.269453654,0.923724223,-0.22736427,-0.122033945,-0.68994225,0.755865094,-3.416315556,1.53429091,-1.930520654,-102.6611328,18.43261719,-14.83154297
7.16002,0.261399772,0.936659294,-0.231513264,-0.129114023,-0.699952016,0.739385602,-3.167173147,1.300603271,-1.929454923,-103.7597656,17.578125,-13.18359375
7.170023,0.167193665,0.987423154,-0.240055259,-0.135339609,-0.719483266,0.720220563,-2.832229614,1.138594151,-2.146088839,-99.24316406,14.77050781,-12.93945313
7.180021,0.146204737,0.971559497,-0.239567145,-0.13558375,-0.745606313,0.689825055,-2.501016855,1.234254241,-2.256670713,-76.29394531,10.25390625,-12.87841797
7.190029,0.417108297,0.94105232,-0.045785677,-0.139123789,-0.755982289,0.676519391,-2.532725811,1.073577404,-2.044300079,-58.22753906,6.042480469,-10.62011719
7.20002,0.407345992,1.115065122,-0.045785677,-0.138879648,-0.754761586,0.673101422,-2.646771669,0.022382848,-1.385871291,-48.95019531,3.234863281,-8.7890625
7.210021,0.135222159,1.135810017,-0.133158175,-0.134240977,-0.751465688,0.675786969,-2.485029221,-0.350931078,-0.742897391,-44.55566406,0.671386719,-7.873535156
7.22002,-0.006819163,1.044532594,-0.110460848,-0.134485117,-0.757202992,0.671148297,-2.127169847,0.108183771,-1.381608009,-37.96386719,-2.685546875,-6.164550781
7.230021,0.035646799,1.073087314,-0.095085243,-0.132776133,-0.762818227,0.666997906,-1.956100941,0.009059724,-1.760251164,-37.96386719,-2.685546875,-6.164550781
7.24002,0.075184071,1.103594491,-0.031630357,-0.126550547,-0.760743031,0.681524273,-1.851647854,-0.095926493,-1.717084169,-30.33447266,-3.112792969,-4.699707031
7.25,0.01416976,1.142643614,-0.074584441,-0.123254648,-0.763672719,0.675420758,-1.706159234,-0.36984992,-1.482064366,-30.33447266,-3.112792969,-4.699707031
7.260021,0.193551848,1.314703959,-0.007712745,-0.123498789,-0.76428307,0.672857281,-1.543617129,-0.650701404,-0.518003047,13.73291016,-4.150390625,-2.624511719
7.270001,-0.069785939,1.11360078,-0.080197753,-0.124841563,-0.755371938,0.679449078,-1.190820813,-0.754088819,-0.10285452,13.73291016,-4.150390625,-2.624511719
7.28002,-0.221101443,0.924212337,-0.094109015,-0.126184336,-0.745240102,0.686162945,-1.0586555,-0.160143942,-0.48309648,29.35791016,-6.591796875,-3.051757813
7.29003,-0.089554575,1.007435927,0.012055889,-0.123010508,-0.739502797,0.700689313,-1.039203644,0.398094952,-0.732771814,29.41894531,-5.187988281,-2.868652344
7.300021,-0.01170031,1.0899272,9.71E-05,-0.123376719,-0.737427602,0.696783063,-1.042401195,0.542784095,-0.168937206,30.15136719,-4.455566406,-2.136230469
7.310023,0.064689613,0.967654584,0.007418803,-0.126062266,-0.72900475,0.706670758,-0.964860678,0.640309334,0.147087291,27.22167969,-4.821777344,-3.112792969
7.320021,0.171098578,0.963749672,0.043051162,-0.127160898,-0.727051625,0.71521568,-1.007228136,0.48096475,0.060753446,21.72851563,-4.638671875,-3.662109375
7.33002,0.187694467,1.026716383,0.066968773,-0.122766367,-0.723755727,0.716680523,-1.033074975,0.088465542,0.133231238,16.6015625,-3.90625,-3.723144531
7.34002,0.071279159,1.045508822,0.051349109,-0.122766367,-0.723755727,0.716680523,-0.98377949,-0.186523736,0.208373666,16.6015625,-3.90625,-3.723144531
7.350021,-0.003402362,1.020859015,0.034997272,-0.122644297,-0.727661977,0.716924664,-0.892116368,-0.196116373,0.10178867,25.51269531,-3.723144531,-2.014160156
7.36002,0.017342504,1.020859015,0.034021044,-0.122644297,-0.727661977,0.716924664,-0.831362903,-0.161742732,-0.105252676,25.51269531,-3.723144531,-2.014160156
7.370021,0.078356819,1.0621047,0.033288871,-0.121911875,-0.710083852,0.735479352,-0.716251135,-0.22542727,-0.196649313,31.00585938,-5.859375,-1.770019531
7.38002,0.065909899,1.096028674,0.043783334,-0.121911875,-0.710083852,0.735479352,-0.558238924,-0.376244992,-0.109249614,23.86474609,-5.37109375,-1.892089844
7.390014,-0.0214626,1.045020708,0.047200136,-0.121667734,-0.703736195,0.741949078,-0.391966313,-0.353062779,-0.03757121,12.93945313,-4.028320313,-2.563476563
7.400021,-0.004378593,0.963261558,0.071849918,-0.120202891,-0.705933461,0.740118023,-0.332811654,-0.173733547,-0.279252678,3.234863281,-3.112792969,-3.173828125
7.410022,0.05492732,0.98937561,0.142870583,-0.11995875,-0.709107289,0.736333844,-0.401558936,-0.180661559,-0.455917299,-3.112792969,-2.44140625,-3.540039063
7.42002,-0.04098718,0.952278943,0.124322231,-0.118982188,-0.718506703,0.728643414,-0.630183756,-0.115911178,-0.125503823,-6.103515625,-1.831054688,-3.540039063
7.430021,-0.049529182,0.998405769,0.106750107,-0.120813242,-0.719239125,0.73108482,-0.806581914,0.227825418,0.176664621,-1.647949219,-2.014160156,-2.990722656
7.44002,0.041748229,1.021835243,0.110166905,-0.119470469,-0.707520375,0.739995953,-0.867068946,0.348799407,0.452986211,3.295898438,-2.868652344,-2.685546875
7.450021,0.075916249,0.999381997,0.090398268,-0.118493906,-0.706787953,0.743535992,-0.881191373,0.23422052,0.597941756,-2.258300781,-2.502441406,-3.295898438
7.46002,0.021491478,1.022079348,0.058914884,-0.121057383,-0.711548695,0.736211773,-0.813243508,0.165473193,0.607001543,-11.47460938,-1.403808594,-3.90625
7.470021,0.02393205,1.012072962,0.057694597,-0.122644297,-0.718994984,0.723516461,-0.662692189,0.221163854,0.443660021,-15.93017578,-0.732421875,-3.90625
7.48002,0.060296581,1.055027095,0.048420421,-0.125940195,-0.722412953,0.719976422,-0.580621719,0.22702603,0.406621754,-13.61083984,-1.159667969,-3.784179688
7.49002,0.095928942,1.017686322,0.070873689,-0.126916758,-0.722779164,0.715826031,-0.445258796,0.169470131,0.302168459,-7.995605469,-1.953125,-3.479003906
7.50002,0.126924208,1.030377287,0.100648675,-0.126306406,-0.721558461,0.721075055,-0.369316995,0.092995405,0.186523736,-2.563476563,-2.685546875,-3.051757813
7.51002,0.10154226,0.993768734,0.116512394,-0.124231211,-0.718628773,0.722661969,-0.364787132,-0.02158346,0.108183771,-1.708984375,-2.9296875,-3.173828125
7.52002,0.063469325,0.986202918,0.14311464,-0.122033945,-0.722779164,0.720098492,-0.404223561,0.009859112,0.073810108,-3.356933594,-2.380371094,-3.173828125
7.530021,0.060052524,0.971559497,0.160930814,-0.11983668,-0.725952992,0.722417828,-0.452719748,0.098591112,0.134830013,-1.953125,-2.136230469,-2.990722656
7.540022,0.096661114,0.944469119,0.177526716,-0.117395273,-0.722412953,0.725469586,-0.535856009,0.150817752,0.134830013,1.220703125,-2.319335938,-2.746582031
7.55002,0.091047796,1.046729156,0.175818305,-0.116418711,-0.718018422,0.729619977,-0.678147018,0.032774884,0.218765706,1.281738281,-2.44140625,-2.868652344
7.560024,-0.009259737,1.121166596,0.137013208,-0.116540781,-0.723145375,0.724737164,-0.665356815,0.014388974,0.483629376,-2.9296875,-1.770019531,-3.173828125
7.570022,0.013681645,1.055515209,0.141894348,-0.117029063,-0.728516469,0.719854352,-0.641375184,0.222496167,0.450055122,-3.723144531,-1.342773438,-3.112792969
7.58002,0.109596148,1.077724349,0.152876926,-0.118127695,-0.723877797,0.718633648,-0.626986206,0.274456352,0.405555874,0.610351563,-2.014160156,-2.9296875
